"","trial_index","shelf_index","product_index","product","price","selected","scenario","latency","pre_discounted","id.session"
"1993",0,0,0,"gordons_export",9.99,FALSE,"D5-fill_1",NA,NA,"5de21ddad521a00010b47e00"
"1994",0,0,1,"gordons_export_large",11.99,FALSE,"D5-fill_1",NA,17.99,"5de21ddad521a00010b47e00"
"1995",0,0,2,"lillet",10.99,FALSE,"D5-fill_1",NA,NA,"5de21ddad521a00010b47e00"
"1996",0,0,3,"rotkappchen",3.99,FALSE,"D5-fill_1",NA,NA,"5de21ddad521a00010b47e00"
"1997",0,0,4,"blanchet_white",4.99,FALSE,"D5-fill_1",NA,NA,"5de21ddad521a00010b47e00"
"1998",0,0,5,"blanchet_red",4.99,FALSE,"D5-fill_1",NA,NA,"5de21ddad521a00010b47e00"
"1999",0,0,6,"malibu",10.99,TRUE,"D5-fill_1",18604,NA,"5de21ddad521a00010b47e00"
"2000",0,0,7,"smirnoff_de",10.99,FALSE,"D5-fill_1",NA,11.99,"5de21ddad521a00010b47e00"
"2001",1,0,0,"amarula",9.99,FALSE,"D6-7",NA,NA,"5de21ddad521a00010b47e00"
"2002",1,0,1,"baileys_500ml",7.99,FALSE,"D6-7",NA,NA,"5de21ddad521a00010b47e00"
"2003",1,0,2,"heiko_blume_schokolade",6.99,FALSE,"D6-7",NA,NA,"5de21ddad521a00010b47e00"
"2004",1,0,3,"deluxe_irish_cream",6.99,FALSE,"D6-7",NA,NA,"5de21ddad521a00010b47e00"
"2005",1,0,4,"southern_comfort",13.99,FALSE,"D6-7",NA,NA,"5de21ddad521a00010b47e00"
"2006",1,0,5,"kronenhof_advocaat",3.99,FALSE,"D6-7",NA,NA,"5de21ddad521a00010b47e00"
"2007",1,0,6,"armilar_amaretto",4.99,FALSE,"D6-7",NA,NA,"5de21ddad521a00010b47e00"
"2008",1,0,7,"baileys_700ml",9.99,FALSE,"D6-7",NA,11.99,"5de21ddad521a00010b47e00"
"2009",1,0,8,"licor_43",11.99,TRUE,"D6-7",6343,NA,"5de21ddad521a00010b47e00"
"2010",1,0,9,"high_mountains",3.99,FALSE,"D6-7",NA,NA,"5de21ddad521a00010b47e00"
"2011",1,0,10,"tartufolikor_blanco",5.99,FALSE,"D6-7",NA,NA,"5de21ddad521a00010b47e00"
"2012",2,0,0,"lillet",10.99,FALSE,"D6-fill_2",NA,13.99,"5de21ddad521a00010b47e00"
"2013",2,0,1,"gordons_export_large",11.99,FALSE,"D6-fill_2",NA,18.99,"5de21ddad521a00010b47e00"
"2014",2,0,2,"rotkappchen",3.99,FALSE,"D6-fill_2",NA,4.99,"5de21ddad521a00010b47e00"
"2015",2,0,3,"gordons_export",9.99,FALSE,"D6-fill_2",NA,NA,"5de21ddad521a00010b47e00"
"2016",2,0,4,"malibu",10.99,TRUE,"D6-fill_2",4695,NA,"5de21ddad521a00010b47e00"
"2017",2,0,5,"blanchet_white",4.99,FALSE,"D6-fill_2",NA,NA,"5de21ddad521a00010b47e00"
"2018",2,0,6,"blanchet_red",4.99,FALSE,"D6-fill_2",NA,NA,"5de21ddad521a00010b47e00"
"2019",2,0,7,"smirnoff_de",10.99,FALSE,"D6-fill_2",NA,NA,"5de21ddad521a00010b47e00"
"2020",3,0,0,"gordons_export",9.99,FALSE,"D6-fill_3",NA,NA,"5de21ddad521a00010b47e00"
"2021",3,0,1,"blanchet_red",4.99,FALSE,"D6-fill_3",NA,NA,"5de21ddad521a00010b47e00"
"2022",3,0,2,"lillet",10.99,FALSE,"D6-fill_3",NA,15.99,"5de21ddad521a00010b47e00"
"2023",3,0,3,"smirnoff_de",10.99,TRUE,"D6-fill_3",3930,12.99,"5de21ddad521a00010b47e00"
"2024",3,0,4,"malibu",10.99,FALSE,"D6-fill_3",NA,NA,"5de21ddad521a00010b47e00"
"2025",3,0,5,"blanchet_white",4.99,FALSE,"D6-fill_3",NA,10.99,"5de21ddad521a00010b47e00"
"2026",3,0,6,"gordons_export_large",11.99,FALSE,"D6-fill_3",NA,13.99,"5de21ddad521a00010b47e00"
"2027",3,0,7,"rotkappchen",3.99,FALSE,"D6-fill_3",NA,NA,"5de21ddad521a00010b47e00"
"2028",4,0,0,"licor_43",11.99,FALSE,"D6-8",NA,NA,"5de21ddad521a00010b47e00"
"2029",4,0,1,"tartufolikor_blanco",5.99,FALSE,"D6-8",NA,NA,"5de21ddad521a00010b47e00"
"2030",4,0,2,"high_mountains",3.99,FALSE,"D6-8",NA,NA,"5de21ddad521a00010b47e00"
"2031",4,0,3,"southern_comfort",13.99,FALSE,"D6-8",NA,NA,"5de21ddad521a00010b47e00"
"2032",4,0,4,"amarula",9.99,FALSE,"D6-8",NA,NA,"5de21ddad521a00010b47e00"
"2033",4,0,5,"heiko_blume_schokolade",6.99,FALSE,"D6-8",NA,NA,"5de21ddad521a00010b47e00"
"2034",4,0,6,"baileys_700ml",8.99,FALSE,"D6-8",NA,11.99,"5de21ddad521a00010b47e00"
"2035",4,0,7,"armilar_amaretto",4.99,FALSE,"D6-8",NA,NA,"5de21ddad521a00010b47e00"
"2036",4,0,8,"baileys_500ml",7.99,TRUE,"D6-8",3075,NA,"5de21ddad521a00010b47e00"
"2037",4,0,9,"deluxe_irish_cream",6.99,FALSE,"D6-8",NA,NA,"5de21ddad521a00010b47e00"
"2038",4,0,10,"kronenhof_advocaat",3.99,FALSE,"D6-8",NA,NA,"5de21ddad521a00010b47e00"
"2039",5,0,0,"gordons_export_large",11.99,FALSE,"D5-fill_4",NA,16.99,"5de21ddad521a00010b47e00"
"2040",5,0,1,"lillet",10.99,FALSE,"D5-fill_4",NA,NA,"5de21ddad521a00010b47e00"
"2041",5,0,2,"smirnoff_de",10.99,FALSE,"D5-fill_4",NA,NA,"5de21ddad521a00010b47e00"
"2042",5,0,3,"malibu",10.99,TRUE,"D5-fill_4",1113,NA,"5de21ddad521a00010b47e00"
"2043",5,0,4,"blanchet_red",4.99,FALSE,"D5-fill_4",NA,12.99,"5de21ddad521a00010b47e00"
"2044",5,0,5,"gordons_export",9.99,FALSE,"D5-fill_4",NA,NA,"5de21ddad521a00010b47e00"
"2045",5,0,6,"rotkappchen",3.99,FALSE,"D5-fill_4",NA,6.99,"5de21ddad521a00010b47e00"
"2046",5,0,7,"blanchet_white",4.99,FALSE,"D5-fill_4",NA,NA,"5de21ddad521a00010b47e00"
"2047",6,0,0,"southern_comfort",13.99,FALSE,"D5-1",NA,NA,"5de21ddad521a00010b47e00"
"2048",6,0,1,"licor_43",11.99,TRUE,"D5-1",1782,NA,"5de21ddad521a00010b47e00"
"2049",6,0,2,"heiko_blume_schokolade",6.99,FALSE,"D5-1",NA,NA,"5de21ddad521a00010b47e00"
"2050",6,0,3,"high_mountains",3.99,FALSE,"D5-1",NA,NA,"5de21ddad521a00010b47e00"
"2051",6,0,4,"armilar_amaretto",4.99,FALSE,"D5-1",NA,NA,"5de21ddad521a00010b47e00"
"2052",6,0,5,"deluxe_irish_cream",6.99,FALSE,"D5-1",NA,NA,"5de21ddad521a00010b47e00"
"2053",6,0,6,"tartufolikor_blanco",5.99,FALSE,"D5-1",NA,NA,"5de21ddad521a00010b47e00"
"2054",6,0,7,"amarula",9.99,FALSE,"D5-1",NA,NA,"5de21ddad521a00010b47e00"
"2055",6,0,8,"baileys_700ml",10.99,FALSE,"D5-1",NA,13.99,"5de21ddad521a00010b47e00"
"2056",6,0,9,"kronenhof_advocaat",3.99,FALSE,"D5-1",NA,NA,"5de21ddad521a00010b47e00"
"2057",7,0,0,"rotkappchen",3.99,FALSE,"D6-fill_7",NA,NA,"5de21ddad521a00010b47e00"
"2058",7,0,1,"gordons_export_large",11.99,FALSE,"D6-fill_7",NA,NA,"5de21ddad521a00010b47e00"
"2059",7,0,2,"malibu",10.99,FALSE,"D6-fill_7",NA,16.99,"5de21ddad521a00010b47e00"
"2060",7,0,3,"gordons_export",9.99,FALSE,"D6-fill_7",NA,NA,"5de21ddad521a00010b47e00"
"2061",7,0,4,"blanchet_red",4.99,FALSE,"D6-fill_7",NA,NA,"5de21ddad521a00010b47e00"
"2062",7,0,5,"lillet",10.99,FALSE,"D6-fill_7",NA,18.99,"5de21ddad521a00010b47e00"
"2063",7,0,6,"smirnoff_de",10.99,TRUE,"D6-fill_7",637,NA,"5de21ddad521a00010b47e00"
"2064",7,0,7,"blanchet_white",4.99,FALSE,"D6-fill_7",NA,7.99,"5de21ddad521a00010b47e00"
"2065",8,0,0,"lillet",10.99,FALSE,"D5-fill_5",NA,NA,"5de21ddad521a00010b47e00"
"2066",8,0,1,"gordons_export",9.99,FALSE,"D5-fill_5",NA,NA,"5de21ddad521a00010b47e00"
"2067",8,0,2,"blanchet_white",4.99,FALSE,"D5-fill_5",NA,12.99,"5de21ddad521a00010b47e00"
"2068",8,0,3,"blanchet_red",4.99,FALSE,"D5-fill_5",NA,NA,"5de21ddad521a00010b47e00"
"2069",8,0,4,"gordons_export_large",11.99,FALSE,"D5-fill_5",NA,13.99,"5de21ddad521a00010b47e00"
"2070",8,0,5,"rotkappchen",3.99,TRUE,"D5-fill_5",1326,NA,"5de21ddad521a00010b47e00"
"2071",8,0,6,"smirnoff_de",10.99,FALSE,"D5-fill_5",NA,NA,"5de21ddad521a00010b47e00"
"2072",8,0,7,"malibu",10.99,FALSE,"D5-fill_5",NA,NA,"5de21ddad521a00010b47e00"
"2073",9,0,0,"high_mountains",3.99,FALSE,"D6-5",NA,NA,"5de21ddad521a00010b47e00"
"2074",9,0,1,"tartufolikor_blanco",5.99,FALSE,"D6-5",NA,NA,"5de21ddad521a00010b47e00"
"2075",9,0,2,"licor_43",11.99,FALSE,"D6-5",NA,NA,"5de21ddad521a00010b47e00"
"2076",9,0,3,"baileys_700ml",8.99,TRUE,"D6-5",3896,12.99,"5de21ddad521a00010b47e00"
"2077",9,0,4,"baileys_500ml",7.99,FALSE,"D6-5",NA,NA,"5de21ddad521a00010b47e00"
"2078",9,0,5,"deluxe_irish_cream",6.99,FALSE,"D6-5",NA,NA,"5de21ddad521a00010b47e00"
"2079",9,0,6,"heiko_blume_schokolade",6.99,FALSE,"D6-5",NA,NA,"5de21ddad521a00010b47e00"
"2080",9,0,7,"amarula",9.99,FALSE,"D6-5",NA,NA,"5de21ddad521a00010b47e00"
"2081",9,0,8,"southern_comfort",13.99,FALSE,"D6-5",NA,NA,"5de21ddad521a00010b47e00"
"2082",9,0,9,"armilar_amaretto",4.99,FALSE,"D6-5",NA,NA,"5de21ddad521a00010b47e00"
"2083",9,0,10,"kronenhof_advocaat",3.99,FALSE,"D6-5",NA,NA,"5de21ddad521a00010b47e00"
"2279",0,0,0,"high_mountains",3.99,FALSE,"D5-1",NA,NA,"5de21e02d521a00010b47e45"
"2280",0,0,1,"kronenhof_advocaat",3.99,FALSE,"D5-1",NA,NA,"5de21e02d521a00010b47e45"
"2281",0,0,2,"licor_43",11.99,FALSE,"D5-1",NA,NA,"5de21e02d521a00010b47e45"
"2282",0,0,3,"baileys_700ml",10.99,FALSE,"D5-1",NA,13.99,"5de21e02d521a00010b47e45"
"2283",0,0,4,"amarula",9.99,TRUE,"D5-1",4350,NA,"5de21e02d521a00010b47e45"
"2284",0,0,5,"armilar_amaretto",4.99,FALSE,"D5-1",NA,NA,"5de21e02d521a00010b47e45"
"2285",0,0,6,"deluxe_irish_cream",6.99,FALSE,"D5-1",NA,NA,"5de21e02d521a00010b47e45"
"2286",0,0,7,"southern_comfort",13.99,FALSE,"D5-1",NA,NA,"5de21e02d521a00010b47e45"
"2287",0,0,8,"heiko_blume_schokolade",6.99,FALSE,"D5-1",NA,NA,"5de21e02d521a00010b47e45"
"2288",0,0,9,"tartufolikor_blanco",5.99,FALSE,"D5-1",NA,NA,"5de21e02d521a00010b47e45"
"2289",1,0,0,"amarula",9.99,FALSE,"D6-4",NA,NA,"5de21e02d521a00010b47e45"
"2290",1,0,1,"deluxe_irish_cream",6.99,FALSE,"D6-4",NA,NA,"5de21e02d521a00010b47e45"
"2291",1,0,2,"kronenhof_advocaat",3.99,FALSE,"D6-4",NA,NA,"5de21e02d521a00010b47e45"
"2292",1,0,3,"tartufolikor_blanco",5.99,FALSE,"D6-4",NA,NA,"5de21e02d521a00010b47e45"
"2293",1,0,4,"licor_43",11.99,FALSE,"D6-4",NA,NA,"5de21e02d521a00010b47e45"
"2294",1,0,5,"armilar_amaretto",4.99,FALSE,"D6-4",NA,NA,"5de21e02d521a00010b47e45"
"2295",1,0,6,"high_mountains",3.99,FALSE,"D6-4",NA,NA,"5de21e02d521a00010b47e45"
"2296",1,0,7,"baileys_500ml",7.99,FALSE,"D6-4",NA,NA,"5de21e02d521a00010b47e45"
"2297",1,0,8,"baileys_700ml",9.99,TRUE,"D6-4",2433,12.99,"5de21e02d521a00010b47e45"
"2298",1,0,9,"heiko_blume_schokolade",6.99,FALSE,"D6-4",NA,NA,"5de21e02d521a00010b47e45"
"2299",1,0,10,"southern_comfort",13.99,FALSE,"D6-4",NA,NA,"5de21e02d521a00010b47e45"
"2300",2,0,0,"blanchet_red",4.99,FALSE,"D5-fill_5",NA,NA,"5de21e02d521a00010b47e45"
"2301",2,0,1,"malibu",10.99,FALSE,"D5-fill_5",NA,NA,"5de21e02d521a00010b47e45"
"2302",2,0,2,"smirnoff_de",10.99,FALSE,"D5-fill_5",NA,NA,"5de21e02d521a00010b47e45"
"2303",2,0,3,"blanchet_white",4.99,FALSE,"D5-fill_5",NA,12.99,"5de21e02d521a00010b47e45"
"2304",2,0,4,"gordons_export_large",11.99,FALSE,"D5-fill_5",NA,13.99,"5de21e02d521a00010b47e45"
"2305",2,0,5,"rotkappchen",3.99,TRUE,"D5-fill_5",3256,NA,"5de21e02d521a00010b47e45"
"2306",2,0,6,"lillet",10.99,FALSE,"D5-fill_5",NA,NA,"5de21e02d521a00010b47e45"
"2307",2,0,7,"gordons_export",9.99,FALSE,"D5-fill_5",NA,NA,"5de21e02d521a00010b47e45"
"2308",3,0,0,"malibu",10.99,FALSE,"D5-fill_7",NA,12.99,"5de21e02d521a00010b47e45"
"2309",3,0,1,"lillet",10.99,FALSE,"D5-fill_7",NA,NA,"5de21e02d521a00010b47e45"
"2310",3,0,2,"gordons_export",9.99,FALSE,"D5-fill_7",NA,NA,"5de21e02d521a00010b47e45"
"2311",3,0,3,"smirnoff_de",10.99,FALSE,"D5-fill_7",NA,NA,"5de21e02d521a00010b47e45"
"2312",3,0,4,"rotkappchen",3.99,TRUE,"D5-fill_7",4573,NA,"5de21e02d521a00010b47e45"
"2313",3,0,5,"blanchet_red",4.99,FALSE,"D5-fill_7",NA,NA,"5de21e02d521a00010b47e45"
"2314",3,0,6,"blanchet_white",4.99,FALSE,"D5-fill_7",NA,NA,"5de21e02d521a00010b47e45"
"2315",3,0,7,"gordons_export_large",11.99,FALSE,"D5-fill_7",NA,NA,"5de21e02d521a00010b47e45"
"2316",4,0,0,"malibu",10.99,FALSE,"D5-fill_4",NA,NA,"5de21e02d521a00010b47e45"
"2317",4,0,1,"gordons_export",9.99,FALSE,"D5-fill_4",NA,NA,"5de21e02d521a00010b47e45"
"2318",4,0,2,"gordons_export_large",11.99,FALSE,"D5-fill_4",NA,16.99,"5de21e02d521a00010b47e45"
"2319",4,0,3,"lillet",10.99,FALSE,"D5-fill_4",NA,NA,"5de21e02d521a00010b47e45"
"2320",4,0,4,"rotkappchen",3.99,TRUE,"D5-fill_4",8147,6.99,"5de21e02d521a00010b47e45"
"2321",4,0,5,"blanchet_white",4.99,FALSE,"D5-fill_4",NA,NA,"5de21e02d521a00010b47e45"
"2322",4,0,6,"smirnoff_de",10.99,FALSE,"D5-fill_4",NA,NA,"5de21e02d521a00010b47e45"
"2323",4,0,7,"blanchet_red",4.99,FALSE,"D5-fill_4",NA,12.99,"5de21e02d521a00010b47e45"
"2324",5,0,0,"lillet",10.99,FALSE,"D6-fill_1",NA,NA,"5de21e02d521a00010b47e45"
"2325",5,0,1,"rotkappchen",3.99,TRUE,"D6-fill_1",6795,NA,"5de21e02d521a00010b47e45"
"2326",5,0,2,"gordons_export_large",11.99,FALSE,"D6-fill_1",NA,NA,"5de21e02d521a00010b47e45"
"2327",5,0,3,"smirnoff_de",10.99,FALSE,"D6-fill_1",NA,17.99,"5de21e02d521a00010b47e45"
"2328",5,0,4,"malibu",10.99,FALSE,"D6-fill_1",NA,NA,"5de21e02d521a00010b47e45"
"2329",5,0,5,"gordons_export",9.99,FALSE,"D6-fill_1",NA,16.99,"5de21e02d521a00010b47e45"
"2330",5,0,6,"blanchet_red",4.99,FALSE,"D6-fill_1",NA,NA,"5de21e02d521a00010b47e45"
"2331",5,0,7,"blanchet_white",4.99,FALSE,"D6-fill_1",NA,NA,"5de21e02d521a00010b47e45"
"2332",6,0,0,"armilar_amaretto",4.99,FALSE,"D6-8",NA,NA,"5de21e02d521a00010b47e45"
"2333",6,0,1,"southern_comfort",13.99,FALSE,"D6-8",NA,NA,"5de21e02d521a00010b47e45"
"2334",6,0,2,"licor_43",11.99,FALSE,"D6-8",NA,NA,"5de21e02d521a00010b47e45"
"2335",6,0,3,"amarula",9.99,FALSE,"D6-8",NA,NA,"5de21e02d521a00010b47e45"
"2336",6,0,4,"deluxe_irish_cream",6.99,FALSE,"D6-8",NA,NA,"5de21e02d521a00010b47e45"
"2337",6,0,5,"kronenhof_advocaat",3.99,FALSE,"D6-8",NA,NA,"5de21e02d521a00010b47e45"
"2338",6,0,6,"baileys_700ml",8.99,TRUE,"D6-8",4832,11.99,"5de21e02d521a00010b47e45"
"2339",6,0,7,"tartufolikor_blanco",5.99,FALSE,"D6-8",NA,NA,"5de21e02d521a00010b47e45"
"2340",6,0,8,"high_mountains",3.99,FALSE,"D6-8",NA,NA,"5de21e02d521a00010b47e45"
"2341",6,0,9,"baileys_500ml",7.99,FALSE,"D6-8",NA,NA,"5de21e02d521a00010b47e45"
"2342",6,0,10,"heiko_blume_schokolade",6.99,FALSE,"D6-8",NA,NA,"5de21e02d521a00010b47e45"
"2343",7,0,0,"armilar_amaretto",4.99,FALSE,"D6-5",NA,NA,"5de21e02d521a00010b47e45"
"2344",7,0,1,"amarula",9.99,TRUE,"D6-5",6958,NA,"5de21e02d521a00010b47e45"
"2345",7,0,2,"kronenhof_advocaat",3.99,FALSE,"D6-5",NA,NA,"5de21e02d521a00010b47e45"
"2346",7,0,3,"deluxe_irish_cream",6.99,FALSE,"D6-5",NA,NA,"5de21e02d521a00010b47e45"
"2347",7,0,4,"baileys_700ml",8.99,FALSE,"D6-5",NA,12.99,"5de21e02d521a00010b47e45"
"2348",7,0,5,"baileys_500ml",7.99,FALSE,"D6-5",NA,NA,"5de21e02d521a00010b47e45"
"2349",7,0,6,"southern_comfort",13.99,FALSE,"D6-5",NA,NA,"5de21e02d521a00010b47e45"
"2350",7,0,7,"licor_43",11.99,FALSE,"D6-5",NA,NA,"5de21e02d521a00010b47e45"
"2351",7,0,8,"high_mountains",3.99,FALSE,"D6-5",NA,NA,"5de21e02d521a00010b47e45"
"2352",7,0,9,"tartufolikor_blanco",5.99,FALSE,"D6-5",NA,NA,"5de21e02d521a00010b47e45"
"2353",7,0,10,"heiko_blume_schokolade",6.99,FALSE,"D6-5",NA,NA,"5de21e02d521a00010b47e45"
"2354",8,0,0,"blanchet_red",4.99,FALSE,"D5-fill_3",NA,NA,"5de21e02d521a00010b47e45"
"2355",8,0,1,"smirnoff_de",10.99,FALSE,"D5-fill_3",NA,NA,"5de21e02d521a00010b47e45"
"2356",8,0,2,"lillet",10.99,FALSE,"D5-fill_3",NA,15.99,"5de21e02d521a00010b47e45"
"2357",8,0,3,"gordons_export_large",11.99,FALSE,"D5-fill_3",NA,NA,"5de21e02d521a00010b47e45"
"2358",8,0,4,"gordons_export",9.99,FALSE,"D5-fill_3",NA,11.99,"5de21e02d521a00010b47e45"
"2359",8,0,5,"malibu",10.99,FALSE,"D5-fill_3",NA,NA,"5de21e02d521a00010b47e45"
"2360",8,0,6,"blanchet_white",4.99,FALSE,"D5-fill_3",NA,NA,"5de21e02d521a00010b47e45"
"2361",8,0,7,"rotkappchen",3.99,TRUE,"D5-fill_3",3172,9.99,"5de21e02d521a00010b47e45"
"2362",9,0,0,"smirnoff_de",10.99,FALSE,"D6-fill_3",NA,12.99,"5de21e02d521a00010b47e45"
"2363",9,0,1,"lillet",10.99,FALSE,"D6-fill_3",NA,15.99,"5de21e02d521a00010b47e45"
"2364",9,0,2,"gordons_export",9.99,FALSE,"D6-fill_3",NA,NA,"5de21e02d521a00010b47e45"
"2365",9,0,3,"malibu",10.99,FALSE,"D6-fill_3",NA,NA,"5de21e02d521a00010b47e45"
"2366",9,0,4,"rotkappchen",3.99,TRUE,"D6-fill_3",3561,NA,"5de21e02d521a00010b47e45"
"2367",9,0,5,"blanchet_white",4.99,FALSE,"D6-fill_3",NA,10.99,"5de21e02d521a00010b47e45"
"2368",9,0,6,"gordons_export_large",11.99,FALSE,"D6-fill_3",NA,13.99,"5de21e02d521a00010b47e45"
"2369",9,0,7,"blanchet_red",4.99,FALSE,"D6-fill_3",NA,NA,"5de21e02d521a00010b47e45"
"2370",5,0,0,"amarula",9.99,FALSE,"D5-3",NA,NA,"5de21daa625af00010e78419"
"2371",5,0,1,"baileys_700ml",10.99,FALSE,"D5-3",NA,12.99,"5de21daa625af00010e78419"
"2372",5,0,2,"heiko_blume_schokolade",6.99,FALSE,"D5-3",NA,NA,"5de21daa625af00010e78419"
"2373",5,0,3,"armilar_amaretto",4.99,FALSE,"D5-3",NA,NA,"5de21daa625af00010e78419"
"2374",5,0,4,"kronenhof_advocaat",3.99,FALSE,"D5-3",NA,NA,"5de21daa625af00010e78419"
"2375",5,0,5,"licor_43",11.99,FALSE,"D5-3",NA,NA,"5de21daa625af00010e78419"
"2376",5,0,6,"southern_comfort",13.99,TRUE,"D5-3",35488,NA,"5de21daa625af00010e78419"
"2377",5,0,7,"tartufolikor_blanco",5.99,FALSE,"D5-3",NA,NA,"5de21daa625af00010e78419"
"2378",5,0,8,"high_mountains",3.99,FALSE,"D5-3",NA,NA,"5de21daa625af00010e78419"
"2379",5,0,9,"deluxe_irish_cream",6.99,FALSE,"D5-3",NA,NA,"5de21daa625af00010e78419"
"2380",6,0,0,"rotkappchen",3.99,FALSE,"D5-fill_5",NA,NA,"5de21daa625af00010e78419"
"2381",6,0,1,"gordons_export_large",11.99,FALSE,"D5-fill_5",NA,13.99,"5de21daa625af00010e78419"
"2382",6,0,2,"blanchet_red",4.99,FALSE,"D5-fill_5",NA,NA,"5de21daa625af00010e78419"
"2383",6,0,3,"blanchet_white",4.99,FALSE,"D5-fill_5",NA,12.99,"5de21daa625af00010e78419"
"2384",6,0,4,"gordons_export",9.99,TRUE,"D5-fill_5",6792,NA,"5de21daa625af00010e78419"
"2385",6,0,5,"lillet",10.99,FALSE,"D5-fill_5",NA,NA,"5de21daa625af00010e78419"
"2386",6,0,6,"smirnoff_de",10.99,FALSE,"D5-fill_5",NA,NA,"5de21daa625af00010e78419"
"2387",6,0,7,"malibu",10.99,FALSE,"D5-fill_5",NA,NA,"5de21daa625af00010e78419"
"2388",7,0,0,"blanchet_red",4.99,FALSE,"D6-fill_8",NA,NA,"5de21daa625af00010e78419"
"2389",7,0,1,"blanchet_white",4.99,FALSE,"D6-fill_8",NA,10.99,"5de21daa625af00010e78419"
"2390",7,0,2,"gordons_export_large",11.99,TRUE,"D6-fill_8",3146,NA,"5de21daa625af00010e78419"
"2391",7,0,3,"gordons_export",9.99,FALSE,"D6-fill_8",NA,NA,"5de21daa625af00010e78419"
"2392",7,0,4,"smirnoff_de",10.99,FALSE,"D6-fill_8",NA,NA,"5de21daa625af00010e78419"
"2393",7,0,5,"rotkappchen",3.99,FALSE,"D6-fill_8",NA,10.99,"5de21daa625af00010e78419"
"2394",7,0,6,"malibu",10.99,FALSE,"D6-fill_8",NA,NA,"5de21daa625af00010e78419"
"2395",7,0,7,"lillet",10.99,FALSE,"D6-fill_8",NA,NA,"5de21daa625af00010e78419"
"2396",8,0,0,"gordons_export_large",11.99,TRUE,"D6-fill_4",4042,NA,"5de21daa625af00010e78419"
"2397",8,0,1,"blanchet_white",4.99,FALSE,"D6-fill_4",NA,10.99,"5de21daa625af00010e78419"
"2398",8,0,2,"rotkappchen",3.99,FALSE,"D6-fill_4",NA,9.99,"5de21daa625af00010e78419"
"2399",8,0,3,"smirnoff_de",10.99,FALSE,"D6-fill_4",NA,NA,"5de21daa625af00010e78419"
"2400",8,0,4,"blanchet_red",4.99,FALSE,"D6-fill_4",NA,10.99,"5de21daa625af00010e78419"
"2401",8,0,5,"lillet",10.99,FALSE,"D6-fill_4",NA,NA,"5de21daa625af00010e78419"
"2402",8,0,6,"gordons_export",9.99,FALSE,"D6-fill_4",NA,NA,"5de21daa625af00010e78419"
"2403",8,0,7,"malibu",10.99,FALSE,"D6-fill_4",NA,NA,"5de21daa625af00010e78419"
"2404",9,0,0,"amarula",9.99,FALSE,"D6-6",NA,NA,"5de21daa625af00010e78419"
"2405",9,0,1,"licor_43",11.99,FALSE,"D6-6",NA,NA,"5de21daa625af00010e78419"
"2406",9,0,2,"baileys_700ml",10.99,FALSE,"D6-6",NA,11.99,"5de21daa625af00010e78419"
"2407",9,0,3,"baileys_500ml",7.99,FALSE,"D6-6",NA,NA,"5de21daa625af00010e78419"
"2408",9,0,4,"high_mountains",3.99,FALSE,"D6-6",NA,NA,"5de21daa625af00010e78419"
"2409",9,0,5,"armilar_amaretto",4.99,FALSE,"D6-6",NA,NA,"5de21daa625af00010e78419"
"2410",9,0,6,"deluxe_irish_cream",6.99,FALSE,"D6-6",NA,NA,"5de21daa625af00010e78419"
"2411",9,0,7,"tartufolikor_blanco",5.99,FALSE,"D6-6",NA,NA,"5de21daa625af00010e78419"
"2412",9,0,8,"kronenhof_advocaat",3.99,FALSE,"D6-6",NA,NA,"5de21daa625af00010e78419"
"2413",9,0,9,"southern_comfort",13.99,TRUE,"D6-6",11102,NA,"5de21daa625af00010e78419"
"2414",9,0,10,"heiko_blume_schokolade",6.99,FALSE,"D6-6",NA,NA,"5de21daa625af00010e78419"
"2415",10,0,0,"heiko_blume_schokolade",6.99,FALSE,"D6-4",NA,NA,"5de21daa625af00010e78419"
"2416",10,0,1,"deluxe_irish_cream",6.99,FALSE,"D6-4",NA,NA,"5de21daa625af00010e78419"
"2417",10,0,2,"kronenhof_advocaat",3.99,FALSE,"D6-4",NA,NA,"5de21daa625af00010e78419"
"2418",10,0,3,"baileys_500ml",7.99,FALSE,"D6-4",NA,NA,"5de21daa625af00010e78419"
"2419",10,0,4,"baileys_700ml",9.99,FALSE,"D6-4",NA,12.99,"5de21daa625af00010e78419"
"2420",10,0,5,"southern_comfort",13.99,TRUE,"D6-4",7309,NA,"5de21daa625af00010e78419"
"2421",10,0,6,"amarula",9.99,FALSE,"D6-4",NA,NA,"5de21daa625af00010e78419"
"2422",10,0,7,"high_mountains",3.99,FALSE,"D6-4",NA,NA,"5de21daa625af00010e78419"
"2423",10,0,8,"tartufolikor_blanco",5.99,FALSE,"D6-4",NA,NA,"5de21daa625af00010e78419"
"2424",10,0,9,"licor_43",11.99,FALSE,"D6-4",NA,NA,"5de21daa625af00010e78419"
"2425",10,0,10,"armilar_amaretto",4.99,FALSE,"D6-4",NA,NA,"5de21daa625af00010e78419"
"2426",11,0,0,"malibu",10.99,FALSE,"D6-fill_5",NA,17.99,"5de21daa625af00010e78419"
"2427",11,0,1,"smirnoff_de",10.99,FALSE,"D6-fill_5",NA,NA,"5de21daa625af00010e78419"
"2428",11,0,2,"gordons_export_large",11.99,TRUE,"D6-fill_5",4195,14.99,"5de21daa625af00010e78419"
"2429",11,0,3,"blanchet_red",4.99,FALSE,"D6-fill_5",NA,NA,"5de21daa625af00010e78419"
"2430",11,0,4,"rotkappchen",3.99,FALSE,"D6-fill_5",NA,NA,"5de21daa625af00010e78419"
"2431",11,0,5,"blanchet_white",4.99,FALSE,"D6-fill_5",NA,NA,"5de21daa625af00010e78419"
"2432",11,0,6,"lillet",10.99,FALSE,"D6-fill_5",NA,NA,"5de21daa625af00010e78419"
"2433",11,0,7,"gordons_export",9.99,FALSE,"D6-fill_5",NA,NA,"5de21daa625af00010e78419"
"2434",12,0,0,"gordons_export",9.99,FALSE,"D6-fill_1",NA,16.99,"5de21daa625af00010e78419"
"2435",12,0,1,"malibu",10.99,FALSE,"D6-fill_1",NA,NA,"5de21daa625af00010e78419"
"2436",12,0,2,"blanchet_red",4.99,FALSE,"D6-fill_1",NA,NA,"5de21daa625af00010e78419"
"2437",12,0,3,"gordons_export_large",11.99,TRUE,"D6-fill_1",7446,NA,"5de21daa625af00010e78419"
"2438",12,0,4,"blanchet_white",4.99,FALSE,"D6-fill_1",NA,NA,"5de21daa625af00010e78419"
"2439",12,0,5,"lillet",10.99,FALSE,"D6-fill_1",NA,NA,"5de21daa625af00010e78419"
"2440",12,0,6,"smirnoff_de",10.99,FALSE,"D6-fill_1",NA,17.99,"5de21daa625af00010e78419"
"2441",12,0,7,"rotkappchen",3.99,FALSE,"D6-fill_1",NA,NA,"5de21daa625af00010e78419"
"2442",13,0,0,"amarula",9.99,FALSE,"D5-8",NA,NA,"5de21daa625af00010e78419"
"2443",13,0,1,"tartufolikor_blanco",5.99,FALSE,"D5-8",NA,NA,"5de21daa625af00010e78419"
"2444",13,0,2,"high_mountains",3.99,FALSE,"D5-8",NA,NA,"5de21daa625af00010e78419"
"2445",13,0,3,"licor_43",11.99,FALSE,"D5-8",NA,NA,"5de21daa625af00010e78419"
"2446",13,0,4,"armilar_amaretto",4.99,TRUE,"D5-8",6918,NA,"5de21daa625af00010e78419"
"2447",13,0,5,"kronenhof_advocaat",3.99,FALSE,"D5-8",NA,NA,"5de21daa625af00010e78419"
"2448",13,0,6,"baileys_700ml",8.99,FALSE,"D5-8",NA,11.99,"5de21daa625af00010e78419"
"2449",13,0,7,"deluxe_irish_cream",6.99,FALSE,"D5-8",NA,NA,"5de21daa625af00010e78419"
"2450",13,0,8,"southern_comfort",13.99,FALSE,"D5-8",NA,NA,"5de21daa625af00010e78419"
"2451",13,0,9,"heiko_blume_schokolade",6.99,FALSE,"D5-8",NA,NA,"5de21daa625af00010e78419"
"3766",0,0,0,"licor_43",11.99,FALSE,"D5-8",NA,NA,"5de254da625af00010e79066"
"3767",0,0,1,"kronenhof_advocaat",3.99,FALSE,"D5-8",NA,NA,"5de254da625af00010e79066"
"3768",0,0,2,"baileys_700ml",8.99,FALSE,"D5-8",NA,11.99,"5de254da625af00010e79066"
"3769",0,0,3,"southern_comfort",13.99,TRUE,"D5-8",3372,NA,"5de254da625af00010e79066"
"3770",0,0,4,"heiko_blume_schokolade",6.99,FALSE,"D5-8",NA,NA,"5de254da625af00010e79066"
"3771",0,0,5,"armilar_amaretto",4.99,FALSE,"D5-8",NA,NA,"5de254da625af00010e79066"
"3772",0,0,6,"tartufolikor_blanco",5.99,FALSE,"D5-8",NA,NA,"5de254da625af00010e79066"
"3773",0,0,7,"deluxe_irish_cream",6.99,FALSE,"D5-8",NA,NA,"5de254da625af00010e79066"
"3774",0,0,8,"high_mountains",3.99,FALSE,"D5-8",NA,NA,"5de254da625af00010e79066"
"3775",0,0,9,"amarula",9.99,FALSE,"D5-8",NA,NA,"5de254da625af00010e79066"
"3776",1,0,0,"southern_comfort",13.99,FALSE,"D5-7",NA,NA,"5de254da625af00010e79066"
"3777",1,0,1,"high_mountains",3.99,FALSE,"D5-7",NA,NA,"5de254da625af00010e79066"
"3778",1,0,2,"baileys_700ml",9.99,FALSE,"D5-7",NA,11.99,"5de254da625af00010e79066"
"3779",1,0,3,"licor_43",11.99,FALSE,"D5-7",NA,NA,"5de254da625af00010e79066"
"3780",1,0,4,"heiko_blume_schokolade",6.99,TRUE,"D5-7",810,NA,"5de254da625af00010e79066"
"3781",1,0,5,"deluxe_irish_cream",6.99,FALSE,"D5-7",NA,NA,"5de254da625af00010e79066"
"3782",1,0,6,"amarula",9.99,FALSE,"D5-7",NA,NA,"5de254da625af00010e79066"
"3783",1,0,7,"kronenhof_advocaat",3.99,FALSE,"D5-7",NA,NA,"5de254da625af00010e79066"
"3784",1,0,8,"tartufolikor_blanco",5.99,FALSE,"D5-7",NA,NA,"5de254da625af00010e79066"
"3785",1,0,9,"armilar_amaretto",4.99,FALSE,"D5-7",NA,NA,"5de254da625af00010e79066"
"3786",2,0,0,"gordons_export",9.99,TRUE,"D6-fill_8",875,NA,"5de254da625af00010e79066"
"3787",2,0,1,"smirnoff_de",10.99,FALSE,"D6-fill_8",NA,NA,"5de254da625af00010e79066"
"3788",2,0,2,"malibu",10.99,FALSE,"D6-fill_8",NA,NA,"5de254da625af00010e79066"
"3789",2,0,3,"blanchet_white",4.99,FALSE,"D6-fill_8",NA,10.99,"5de254da625af00010e79066"
"3790",2,0,4,"lillet",10.99,FALSE,"D6-fill_8",NA,NA,"5de254da625af00010e79066"
"3791",2,0,5,"gordons_export_large",11.99,FALSE,"D6-fill_8",NA,NA,"5de254da625af00010e79066"
"3792",2,0,6,"blanchet_red",4.99,FALSE,"D6-fill_8",NA,NA,"5de254da625af00010e79066"
"3793",2,0,7,"rotkappchen",3.99,FALSE,"D6-fill_8",NA,10.99,"5de254da625af00010e79066"
"3794",3,0,0,"southern_comfort",13.99,FALSE,"D5-6",NA,NA,"5de254da625af00010e79066"
"3795",3,0,1,"licor_43",11.99,FALSE,"D5-6",NA,NA,"5de254da625af00010e79066"
"3796",3,0,2,"tartufolikor_blanco",5.99,FALSE,"D5-6",NA,NA,"5de254da625af00010e79066"
"3797",3,0,3,"heiko_blume_schokolade",6.99,FALSE,"D5-6",NA,NA,"5de254da625af00010e79066"
"3798",3,0,4,"deluxe_irish_cream",6.99,FALSE,"D5-6",NA,NA,"5de254da625af00010e79066"
"3799",3,0,5,"armilar_amaretto",4.99,TRUE,"D5-6",1628,NA,"5de254da625af00010e79066"
"3800",3,0,6,"high_mountains",3.99,FALSE,"D5-6",NA,NA,"5de254da625af00010e79066"
"3801",3,0,7,"baileys_700ml",10.99,FALSE,"D5-6",NA,11.99,"5de254da625af00010e79066"
"3802",3,0,8,"amarula",9.99,FALSE,"D5-6",NA,NA,"5de254da625af00010e79066"
"3803",3,0,9,"kronenhof_advocaat",3.99,FALSE,"D5-6",NA,NA,"5de254da625af00010e79066"
"3804",4,0,0,"rotkappchen",3.99,FALSE,"D6-fill_1",NA,NA,"5de254da625af00010e79066"
"3805",4,0,1,"smirnoff_de",10.99,TRUE,"D6-fill_1",710,17.99,"5de254da625af00010e79066"
"3806",4,0,2,"gordons_export",9.99,FALSE,"D6-fill_1",NA,16.99,"5de254da625af00010e79066"
"3807",4,0,3,"lillet",10.99,FALSE,"D6-fill_1",NA,NA,"5de254da625af00010e79066"
"3808",4,0,4,"gordons_export_large",11.99,FALSE,"D6-fill_1",NA,NA,"5de254da625af00010e79066"
"3809",4,0,5,"blanchet_white",4.99,FALSE,"D6-fill_1",NA,NA,"5de254da625af00010e79066"
"3810",4,0,6,"malibu",10.99,FALSE,"D6-fill_1",NA,NA,"5de254da625af00010e79066"
"3811",4,0,7,"blanchet_red",4.99,FALSE,"D6-fill_1",NA,NA,"5de254da625af00010e79066"
"3812",5,0,0,"amarula",9.99,FALSE,"D5-5",NA,NA,"5de254da625af00010e79066"
"3813",5,0,1,"baileys_700ml",8.99,TRUE,"D5-5",3650,12.99,"5de254da625af00010e79066"
"3814",5,0,2,"tartufolikor_blanco",5.99,FALSE,"D5-5",NA,NA,"5de254da625af00010e79066"
"3815",5,0,3,"southern_comfort",13.99,FALSE,"D5-5",NA,NA,"5de254da625af00010e79066"
"3816",5,0,4,"armilar_amaretto",4.99,FALSE,"D5-5",NA,NA,"5de254da625af00010e79066"
"3817",5,0,5,"high_mountains",3.99,FALSE,"D5-5",NA,NA,"5de254da625af00010e79066"
"3818",5,0,6,"heiko_blume_schokolade",6.99,FALSE,"D5-5",NA,NA,"5de254da625af00010e79066"
"3819",5,0,7,"licor_43",11.99,FALSE,"D5-5",NA,NA,"5de254da625af00010e79066"
"3820",5,0,8,"kronenhof_advocaat",3.99,FALSE,"D5-5",NA,NA,"5de254da625af00010e79066"
"3821",5,0,9,"deluxe_irish_cream",6.99,FALSE,"D5-5",NA,NA,"5de254da625af00010e79066"
"3822",6,0,0,"licor_43",11.99,FALSE,"D5-1",NA,NA,"5de254da625af00010e79066"
"3823",6,0,1,"southern_comfort",13.99,FALSE,"D5-1",NA,NA,"5de254da625af00010e79066"
"3824",6,0,2,"armilar_amaretto",4.99,FALSE,"D5-1",NA,NA,"5de254da625af00010e79066"
"3825",6,0,3,"amarula",9.99,FALSE,"D5-1",NA,NA,"5de254da625af00010e79066"
"3826",6,0,4,"deluxe_irish_cream",6.99,TRUE,"D5-1",840,NA,"5de254da625af00010e79066"
"3827",6,0,5,"baileys_700ml",10.99,FALSE,"D5-1",NA,13.99,"5de254da625af00010e79066"
"3828",6,0,6,"tartufolikor_blanco",5.99,FALSE,"D5-1",NA,NA,"5de254da625af00010e79066"
"3829",6,0,7,"kronenhof_advocaat",3.99,FALSE,"D5-1",NA,NA,"5de254da625af00010e79066"
"3830",6,0,8,"heiko_blume_schokolade",6.99,FALSE,"D5-1",NA,NA,"5de254da625af00010e79066"
"3831",6,0,9,"high_mountains",3.99,FALSE,"D5-1",NA,NA,"5de254da625af00010e79066"
"3832",7,0,0,"blanchet_white",4.99,TRUE,"D6-fill_6",1309,NA,"5de254da625af00010e79066"
"3833",7,0,1,"gordons_export",9.99,FALSE,"D6-fill_6",NA,NA,"5de254da625af00010e79066"
"3834",7,0,2,"smirnoff_de",10.99,FALSE,"D6-fill_6",NA,NA,"5de254da625af00010e79066"
"3835",7,0,3,"lillet",10.99,FALSE,"D6-fill_6",NA,NA,"5de254da625af00010e79066"
"3836",7,0,4,"gordons_export_large",11.99,FALSE,"D6-fill_6",NA,NA,"5de254da625af00010e79066"
"3837",7,0,5,"malibu",10.99,FALSE,"D6-fill_6",NA,NA,"5de254da625af00010e79066"
"3838",7,0,6,"rotkappchen",3.99,FALSE,"D6-fill_6",NA,NA,"5de254da625af00010e79066"
"3839",7,0,7,"blanchet_red",4.99,FALSE,"D6-fill_6",NA,7.99,"5de254da625af00010e79066"
"3840",8,0,0,"tartufolikor_blanco",5.99,FALSE,"D6-1",NA,NA,"5de254da625af00010e79066"
"3841",8,0,1,"heiko_blume_schokolade",6.99,FALSE,"D6-1",NA,NA,"5de254da625af00010e79066"
"3842",8,0,2,"baileys_500ml",7.99,FALSE,"D6-1",NA,NA,"5de254da625af00010e79066"
"3843",8,0,3,"deluxe_irish_cream",6.99,FALSE,"D6-1",NA,NA,"5de254da625af00010e79066"
"3844",8,0,4,"southern_comfort",13.99,FALSE,"D6-1",NA,NA,"5de254da625af00010e79066"
"3845",8,0,5,"kronenhof_advocaat",3.99,TRUE,"D6-1",724,NA,"5de254da625af00010e79066"
"3846",8,0,6,"baileys_700ml",10.99,FALSE,"D6-1",NA,13.99,"5de254da625af00010e79066"
"3847",8,0,7,"amarula",9.99,FALSE,"D6-1",NA,NA,"5de254da625af00010e79066"
"3848",8,0,8,"licor_43",11.99,FALSE,"D6-1",NA,NA,"5de254da625af00010e79066"
"3849",8,0,9,"high_mountains",3.99,FALSE,"D6-1",NA,NA,"5de254da625af00010e79066"
"3850",8,0,10,"armilar_amaretto",4.99,FALSE,"D6-1",NA,NA,"5de254da625af00010e79066"
"3851",9,0,0,"malibu",10.99,FALSE,"D6-fill_2",NA,NA,"5de254da625af00010e79066"
"3852",9,0,1,"gordons_export",9.99,TRUE,"D6-fill_2",2073,NA,"5de254da625af00010e79066"
"3853",9,0,2,"blanchet_red",4.99,FALSE,"D6-fill_2",NA,NA,"5de254da625af00010e79066"
"3854",9,0,3,"gordons_export_large",11.99,FALSE,"D6-fill_2",NA,18.99,"5de254da625af00010e79066"
"3855",9,0,4,"rotkappchen",3.99,FALSE,"D6-fill_2",NA,4.99,"5de254da625af00010e79066"
"3856",9,0,5,"smirnoff_de",10.99,FALSE,"D6-fill_2",NA,NA,"5de254da625af00010e79066"
"3857",9,0,6,"lillet",10.99,FALSE,"D6-fill_2",NA,13.99,"5de254da625af00010e79066"
"3858",9,0,7,"blanchet_white",4.99,FALSE,"D6-fill_2",NA,NA,"5de254da625af00010e79066"
"4119",0,0,0,"gordons_export_large",11.99,FALSE,"D5-fill_1",NA,17.99,"5de2628ed521a00010b48b90"
"4120",0,0,1,"blanchet_white",4.99,FALSE,"D5-fill_1",NA,NA,"5de2628ed521a00010b48b90"
"4121",0,0,2,"gordons_export",9.99,FALSE,"D5-fill_1",NA,NA,"5de2628ed521a00010b48b90"
"4122",0,0,3,"lillet",10.99,FALSE,"D5-fill_1",NA,NA,"5de2628ed521a00010b48b90"
"4123",0,0,4,"malibu",10.99,FALSE,"D5-fill_1",NA,NA,"5de2628ed521a00010b48b90"
"4124",0,0,5,"smirnoff_de",10.99,FALSE,"D5-fill_1",NA,11.99,"5de2628ed521a00010b48b90"
"4125",0,0,6,"blanchet_red",4.99,FALSE,"D5-fill_1",NA,NA,"5de2628ed521a00010b48b90"
"4126",0,0,7,"rotkappchen",3.99,TRUE,"D5-fill_1",15167,NA,"5de2628ed521a00010b48b90"
"4127",1,0,0,"gordons_export_large",11.99,FALSE,"D5-fill_4",NA,16.99,"5de2628ed521a00010b48b90"
"4128",1,0,1,"blanchet_red",4.99,FALSE,"D5-fill_4",NA,12.99,"5de2628ed521a00010b48b90"
"4129",1,0,2,"malibu",10.99,FALSE,"D5-fill_4",NA,NA,"5de2628ed521a00010b48b90"
"4130",1,0,3,"rotkappchen",3.99,FALSE,"D5-fill_4",NA,6.99,"5de2628ed521a00010b48b90"
"4131",1,0,4,"smirnoff_de",10.99,TRUE,"D5-fill_4",13644,NA,"5de2628ed521a00010b48b90"
"4132",1,0,5,"gordons_export",9.99,FALSE,"D5-fill_4",NA,NA,"5de2628ed521a00010b48b90"
"4133",1,0,6,"lillet",10.99,FALSE,"D5-fill_4",NA,NA,"5de2628ed521a00010b48b90"
"4134",1,0,7,"blanchet_white",4.99,FALSE,"D5-fill_4",NA,NA,"5de2628ed521a00010b48b90"
"4135",2,0,0,"deluxe_irish_cream",6.99,FALSE,"D5-5",NA,NA,"5de2628ed521a00010b48b90"
"4136",2,0,1,"armilar_amaretto",4.99,FALSE,"D5-5",NA,NA,"5de2628ed521a00010b48b90"
"4137",2,0,2,"licor_43",11.99,FALSE,"D5-5",NA,NA,"5de2628ed521a00010b48b90"
"4138",2,0,3,"kronenhof_advocaat",3.99,FALSE,"D5-5",NA,NA,"5de2628ed521a00010b48b90"
"4139",2,0,4,"tartufolikor_blanco",5.99,FALSE,"D5-5",NA,NA,"5de2628ed521a00010b48b90"
"4140",2,0,5,"southern_comfort",13.99,FALSE,"D5-5",NA,NA,"5de2628ed521a00010b48b90"
"4141",2,0,6,"baileys_700ml",8.99,TRUE,"D5-5",6362,12.99,"5de2628ed521a00010b48b90"
"4142",2,0,7,"heiko_blume_schokolade",6.99,FALSE,"D5-5",NA,NA,"5de2628ed521a00010b48b90"
"4143",2,0,8,"high_mountains",3.99,FALSE,"D5-5",NA,NA,"5de2628ed521a00010b48b90"
"4144",2,0,9,"amarula",9.99,FALSE,"D5-5",NA,NA,"5de2628ed521a00010b48b90"
"4145",3,0,0,"licor_43",11.99,FALSE,"D6-3",NA,NA,"5de2628ed521a00010b48b90"
"4146",3,0,1,"high_mountains",3.99,FALSE,"D6-3",NA,NA,"5de2628ed521a00010b48b90"
"4147",3,0,2,"baileys_700ml",10.99,TRUE,"D6-3",9114,12.99,"5de2628ed521a00010b48b90"
"4148",3,0,3,"kronenhof_advocaat",3.99,FALSE,"D6-3",NA,NA,"5de2628ed521a00010b48b90"
"4149",3,0,4,"amarula",9.99,FALSE,"D6-3",NA,NA,"5de2628ed521a00010b48b90"
"4150",3,0,5,"southern_comfort",13.99,FALSE,"D6-3",NA,NA,"5de2628ed521a00010b48b90"
"4151",3,0,6,"armilar_amaretto",4.99,FALSE,"D6-3",NA,NA,"5de2628ed521a00010b48b90"
"4152",3,0,7,"heiko_blume_schokolade",6.99,FALSE,"D6-3",NA,NA,"5de2628ed521a00010b48b90"
"4153",3,0,8,"tartufolikor_blanco",5.99,FALSE,"D6-3",NA,NA,"5de2628ed521a00010b48b90"
"4154",3,0,9,"baileys_500ml",7.99,FALSE,"D6-3",NA,NA,"5de2628ed521a00010b48b90"
"4155",3,0,10,"deluxe_irish_cream",6.99,FALSE,"D6-3",NA,NA,"5de2628ed521a00010b48b90"
"4156",4,0,0,"licor_43",11.99,FALSE,"D6-6",NA,NA,"5de2628ed521a00010b48b90"
"4157",4,0,1,"heiko_blume_schokolade",6.99,FALSE,"D6-6",NA,NA,"5de2628ed521a00010b48b90"
"4158",4,0,2,"deluxe_irish_cream",6.99,FALSE,"D6-6",NA,NA,"5de2628ed521a00010b48b90"
"4159",4,0,3,"high_mountains",3.99,FALSE,"D6-6",NA,NA,"5de2628ed521a00010b48b90"
"4160",4,0,4,"baileys_700ml",10.99,TRUE,"D6-6",4490,11.99,"5de2628ed521a00010b48b90"
"4161",4,0,5,"amarula",9.99,FALSE,"D6-6",NA,NA,"5de2628ed521a00010b48b90"
"4162",4,0,6,"baileys_500ml",7.99,FALSE,"D6-6",NA,NA,"5de2628ed521a00010b48b90"
"4163",4,0,7,"southern_comfort",13.99,FALSE,"D6-6",NA,NA,"5de2628ed521a00010b48b90"
"4164",4,0,8,"armilar_amaretto",4.99,FALSE,"D6-6",NA,NA,"5de2628ed521a00010b48b90"
"4165",4,0,9,"tartufolikor_blanco",5.99,FALSE,"D6-6",NA,NA,"5de2628ed521a00010b48b90"
"4166",4,0,10,"kronenhof_advocaat",3.99,FALSE,"D6-6",NA,NA,"5de2628ed521a00010b48b90"
"4167",5,0,0,"southern_comfort",13.99,FALSE,"D5-2",NA,NA,"5de2628ed521a00010b48b90"
"4168",5,0,1,"baileys_700ml",11.99,FALSE,"D5-2",NA,12.99,"5de2628ed521a00010b48b90"
"4169",5,0,2,"tartufolikor_blanco",5.99,FALSE,"D5-2",NA,NA,"5de2628ed521a00010b48b90"
"4170",5,0,3,"licor_43",11.99,FALSE,"D5-2",NA,NA,"5de2628ed521a00010b48b90"
"4171",5,0,4,"high_mountains",3.99,FALSE,"D5-2",NA,NA,"5de2628ed521a00010b48b90"
"4172",5,0,5,"kronenhof_advocaat",3.99,TRUE,"D5-2",5036,NA,"5de2628ed521a00010b48b90"
"4173",5,0,6,"armilar_amaretto",4.99,FALSE,"D5-2",NA,NA,"5de2628ed521a00010b48b90"
"4174",5,0,7,"deluxe_irish_cream",6.99,FALSE,"D5-2",NA,NA,"5de2628ed521a00010b48b90"
"4175",5,0,8,"amarula",9.99,FALSE,"D5-2",NA,NA,"5de2628ed521a00010b48b90"
"4176",5,0,9,"heiko_blume_schokolade",6.99,FALSE,"D5-2",NA,NA,"5de2628ed521a00010b48b90"
"4177",6,0,0,"blanchet_red",4.99,FALSE,"D6-fill_4",NA,10.99,"5de2628ed521a00010b48b90"
"4178",6,0,1,"gordons_export",9.99,FALSE,"D6-fill_4",NA,NA,"5de2628ed521a00010b48b90"
"4179",6,0,2,"rotkappchen",3.99,TRUE,"D6-fill_4",13125,9.99,"5de2628ed521a00010b48b90"
"4180",6,0,3,"blanchet_white",4.99,FALSE,"D6-fill_4",NA,10.99,"5de2628ed521a00010b48b90"
"4181",6,0,4,"gordons_export_large",11.99,FALSE,"D6-fill_4",NA,NA,"5de2628ed521a00010b48b90"
"4182",6,0,5,"malibu",10.99,FALSE,"D6-fill_4",NA,NA,"5de2628ed521a00010b48b90"
"4183",6,0,6,"lillet",10.99,FALSE,"D6-fill_4",NA,NA,"5de2628ed521a00010b48b90"
"4184",6,0,7,"smirnoff_de",10.99,FALSE,"D6-fill_4",NA,NA,"5de2628ed521a00010b48b90"
"4185",7,0,0,"blanchet_white",4.99,FALSE,"D5-fill_7",NA,NA,"5de2628ed521a00010b48b90"
"4186",7,0,1,"malibu",10.99,FALSE,"D5-fill_7",NA,12.99,"5de2628ed521a00010b48b90"
"4187",7,0,2,"lillet",10.99,FALSE,"D5-fill_7",NA,NA,"5de2628ed521a00010b48b90"
"4188",7,0,3,"smirnoff_de",10.99,FALSE,"D5-fill_7",NA,NA,"5de2628ed521a00010b48b90"
"4189",7,0,4,"gordons_export_large",11.99,FALSE,"D5-fill_7",NA,NA,"5de2628ed521a00010b48b90"
"4190",7,0,5,"blanchet_red",4.99,FALSE,"D5-fill_7",NA,NA,"5de2628ed521a00010b48b90"
"4191",7,0,6,"rotkappchen",3.99,TRUE,"D5-fill_7",2835,NA,"5de2628ed521a00010b48b90"
"4192",7,0,7,"gordons_export",9.99,FALSE,"D5-fill_7",NA,NA,"5de2628ed521a00010b48b90"
"4193",8,0,0,"baileys_500ml",7.99,FALSE,"D6-4",NA,NA,"5de2628ed521a00010b48b90"
"4194",8,0,1,"heiko_blume_schokolade",6.99,TRUE,"D6-4",11093,NA,"5de2628ed521a00010b48b90"
"4195",8,0,2,"deluxe_irish_cream",6.99,FALSE,"D6-4",NA,NA,"5de2628ed521a00010b48b90"
"4196",8,0,3,"amarula",9.99,FALSE,"D6-4",NA,NA,"5de2628ed521a00010b48b90"
"4197",8,0,4,"baileys_700ml",9.99,FALSE,"D6-4",NA,12.99,"5de2628ed521a00010b48b90"
"4198",8,0,5,"tartufolikor_blanco",5.99,FALSE,"D6-4",NA,NA,"5de2628ed521a00010b48b90"
"4199",8,0,6,"southern_comfort",13.99,FALSE,"D6-4",NA,NA,"5de2628ed521a00010b48b90"
"4200",8,0,7,"high_mountains",3.99,FALSE,"D6-4",NA,NA,"5de2628ed521a00010b48b90"
"4201",8,0,8,"armilar_amaretto",4.99,FALSE,"D6-4",NA,NA,"5de2628ed521a00010b48b90"
"4202",8,0,9,"licor_43",11.99,FALSE,"D6-4",NA,NA,"5de2628ed521a00010b48b90"
"4203",8,0,10,"kronenhof_advocaat",3.99,FALSE,"D6-4",NA,NA,"5de2628ed521a00010b48b90"
"4204",9,0,0,"deluxe_irish_cream",6.99,FALSE,"D6-5",NA,NA,"5de2628ed521a00010b48b90"
"4205",9,0,1,"licor_43",11.99,FALSE,"D6-5",NA,NA,"5de2628ed521a00010b48b90"
"4206",9,0,2,"southern_comfort",13.99,FALSE,"D6-5",NA,NA,"5de2628ed521a00010b48b90"
"4207",9,0,3,"amarula",9.99,FALSE,"D6-5",NA,NA,"5de2628ed521a00010b48b90"
"4208",9,0,4,"armilar_amaretto",4.99,FALSE,"D6-5",NA,NA,"5de2628ed521a00010b48b90"
"4209",9,0,5,"heiko_blume_schokolade",6.99,FALSE,"D6-5",NA,NA,"5de2628ed521a00010b48b90"
"4210",9,0,6,"tartufolikor_blanco",5.99,FALSE,"D6-5",NA,NA,"5de2628ed521a00010b48b90"
"4211",9,0,7,"baileys_500ml",7.99,FALSE,"D6-5",NA,NA,"5de2628ed521a00010b48b90"
"4212",9,0,8,"baileys_700ml",8.99,FALSE,"D6-5",NA,12.99,"5de2628ed521a00010b48b90"
"4213",9,0,9,"kronenhof_advocaat",3.99,TRUE,"D6-5",8196,NA,"5de2628ed521a00010b48b90"
"4214",9,0,10,"high_mountains",3.99,FALSE,"D6-5",NA,NA,"5de2628ed521a00010b48b90"
"4781",0,0,0,"high_mountains",3.99,FALSE,"D5-2",NA,NA,"5de27c03625af00010e799f8"
"4782",0,0,1,"licor_43",11.99,FALSE,"D5-2",NA,NA,"5de27c03625af00010e799f8"
"4783",0,0,2,"baileys_700ml",11.99,FALSE,"D5-2",NA,12.99,"5de27c03625af00010e799f8"
"4784",0,0,3,"tartufolikor_blanco",5.99,TRUE,"D5-2",5811,NA,"5de27c03625af00010e799f8"
"4785",0,0,4,"southern_comfort",13.99,FALSE,"D5-2",NA,NA,"5de27c03625af00010e799f8"
"4786",0,0,5,"amarula",9.99,FALSE,"D5-2",NA,NA,"5de27c03625af00010e799f8"
"4787",0,0,6,"heiko_blume_schokolade",6.99,FALSE,"D5-2",NA,NA,"5de27c03625af00010e799f8"
"4788",0,0,7,"deluxe_irish_cream",6.99,FALSE,"D5-2",NA,NA,"5de27c03625af00010e799f8"
"4789",0,0,8,"armilar_amaretto",4.99,FALSE,"D5-2",NA,NA,"5de27c03625af00010e799f8"
"4790",0,0,9,"kronenhof_advocaat",3.99,FALSE,"D5-2",NA,NA,"5de27c03625af00010e799f8"
"4791",1,0,0,"tartufolikor_blanco",5.99,FALSE,"D6-8",NA,NA,"5de27c03625af00010e799f8"
"4792",1,0,1,"southern_comfort",13.99,FALSE,"D6-8",NA,NA,"5de27c03625af00010e799f8"
"4793",1,0,2,"baileys_700ml",8.99,FALSE,"D6-8",NA,11.99,"5de27c03625af00010e799f8"
"4794",1,0,3,"baileys_500ml",7.99,TRUE,"D6-8",2086,NA,"5de27c03625af00010e799f8"
"4795",1,0,4,"deluxe_irish_cream",6.99,FALSE,"D6-8",NA,NA,"5de27c03625af00010e799f8"
"4796",1,0,5,"heiko_blume_schokolade",6.99,FALSE,"D6-8",NA,NA,"5de27c03625af00010e799f8"
"4797",1,0,6,"licor_43",11.99,FALSE,"D6-8",NA,NA,"5de27c03625af00010e799f8"
"4798",1,0,7,"armilar_amaretto",4.99,FALSE,"D6-8",NA,NA,"5de27c03625af00010e799f8"
"4799",1,0,8,"kronenhof_advocaat",3.99,FALSE,"D6-8",NA,NA,"5de27c03625af00010e799f8"
"4800",1,0,9,"high_mountains",3.99,FALSE,"D6-8",NA,NA,"5de27c03625af00010e799f8"
"4801",1,0,10,"amarula",9.99,FALSE,"D6-8",NA,NA,"5de27c03625af00010e799f8"
"4802",2,0,0,"tartufolikor_blanco",5.99,FALSE,"D6-5",NA,NA,"5de27c03625af00010e799f8"
"4803",2,0,1,"baileys_500ml",7.99,FALSE,"D6-5",NA,NA,"5de27c03625af00010e799f8"
"4804",2,0,2,"licor_43",11.99,FALSE,"D6-5",NA,NA,"5de27c03625af00010e799f8"
"4805",2,0,3,"high_mountains",3.99,FALSE,"D6-5",NA,NA,"5de27c03625af00010e799f8"
"4806",2,0,4,"kronenhof_advocaat",3.99,FALSE,"D6-5",NA,NA,"5de27c03625af00010e799f8"
"4807",2,0,5,"armilar_amaretto",4.99,TRUE,"D6-5",2024,NA,"5de27c03625af00010e799f8"
"4808",2,0,6,"amarula",9.99,FALSE,"D6-5",NA,NA,"5de27c03625af00010e799f8"
"4809",2,0,7,"southern_comfort",13.99,FALSE,"D6-5",NA,NA,"5de27c03625af00010e799f8"
"4810",2,0,8,"deluxe_irish_cream",6.99,FALSE,"D6-5",NA,NA,"5de27c03625af00010e799f8"
"4811",2,0,9,"baileys_700ml",8.99,FALSE,"D6-5",NA,12.99,"5de27c03625af00010e799f8"
"4812",2,0,10,"heiko_blume_schokolade",6.99,FALSE,"D6-5",NA,NA,"5de27c03625af00010e799f8"
"4813",3,0,0,"lillet",10.99,FALSE,"D5-fill_8",NA,NA,"5de27c03625af00010e799f8"
"4814",3,0,1,"blanchet_white",4.99,FALSE,"D5-fill_8",NA,NA,"5de27c03625af00010e799f8"
"4815",3,0,2,"blanchet_red",4.99,FALSE,"D5-fill_8",NA,NA,"5de27c03625af00010e799f8"
"4816",3,0,3,"rotkappchen",3.99,FALSE,"D5-fill_8",NA,6.99,"5de27c03625af00010e799f8"
"4817",3,0,4,"smirnoff_de",10.99,FALSE,"D5-fill_8",NA,NA,"5de27c03625af00010e799f8"
"4818",3,0,5,"gordons_export",9.99,FALSE,"D5-fill_8",NA,NA,"5de27c03625af00010e799f8"
"4819",3,0,6,"gordons_export_large",11.99,FALSE,"D5-fill_8",NA,16.99,"5de27c03625af00010e799f8"
"4820",3,0,7,"malibu",10.99,TRUE,"D5-fill_8",2524,17.99,"5de27c03625af00010e799f8"
"4821",4,0,0,"blanchet_white",4.99,FALSE,"D5-fill_2",NA,11.99,"5de27c03625af00010e799f8"
"4822",4,0,1,"rotkappchen",3.99,TRUE,"D5-fill_2",4191,NA,"5de27c03625af00010e799f8"
"4823",4,0,2,"smirnoff_de",10.99,FALSE,"D5-fill_2",NA,NA,"5de27c03625af00010e799f8"
"4824",4,0,3,"gordons_export",9.99,FALSE,"D5-fill_2",NA,13.99,"5de27c03625af00010e799f8"
"4825",4,0,4,"lillet",10.99,FALSE,"D5-fill_2",NA,12.99,"5de27c03625af00010e799f8"
"4826",4,0,5,"malibu",10.99,FALSE,"D5-fill_2",NA,18.99,"5de27c03625af00010e799f8"
"4827",4,0,6,"gordons_export_large",11.99,FALSE,"D5-fill_2",NA,NA,"5de27c03625af00010e799f8"
"4828",4,0,7,"blanchet_red",4.99,FALSE,"D5-fill_2",NA,NA,"5de27c03625af00010e799f8"
"4829",5,0,0,"lillet",10.99,FALSE,"D5-fill_3",NA,15.99,"5de27c03625af00010e799f8"
"4830",5,0,1,"rotkappchen",3.99,FALSE,"D5-fill_3",NA,9.99,"5de27c03625af00010e799f8"
"4831",5,0,2,"blanchet_red",4.99,FALSE,"D5-fill_3",NA,NA,"5de27c03625af00010e799f8"
"4832",5,0,3,"gordons_export_large",11.99,FALSE,"D5-fill_3",NA,NA,"5de27c03625af00010e799f8"
"4833",5,0,4,"smirnoff_de",10.99,FALSE,"D5-fill_3",NA,NA,"5de27c03625af00010e799f8"
"4834",5,0,5,"malibu",10.99,FALSE,"D5-fill_3",NA,NA,"5de27c03625af00010e799f8"
"4835",5,0,6,"gordons_export",9.99,FALSE,"D5-fill_3",NA,11.99,"5de27c03625af00010e799f8"
"4836",5,0,7,"blanchet_white",4.99,TRUE,"D5-fill_3",5959,NA,"5de27c03625af00010e799f8"
"4837",6,0,0,"baileys_700ml",9.99,TRUE,"D6-4",3498,12.99,"5de27c03625af00010e799f8"
"4838",6,0,1,"amarula",9.99,FALSE,"D6-4",NA,NA,"5de27c03625af00010e799f8"
"4839",6,0,2,"armilar_amaretto",4.99,FALSE,"D6-4",NA,NA,"5de27c03625af00010e799f8"
"4840",6,0,3,"high_mountains",3.99,FALSE,"D6-4",NA,NA,"5de27c03625af00010e799f8"
"4841",6,0,4,"baileys_500ml",7.99,FALSE,"D6-4",NA,NA,"5de27c03625af00010e799f8"
"4842",6,0,5,"southern_comfort",13.99,FALSE,"D6-4",NA,NA,"5de27c03625af00010e799f8"
"4843",6,0,6,"kronenhof_advocaat",3.99,FALSE,"D6-4",NA,NA,"5de27c03625af00010e799f8"
"4844",6,0,7,"tartufolikor_blanco",5.99,FALSE,"D6-4",NA,NA,"5de27c03625af00010e799f8"
"4845",6,0,8,"licor_43",11.99,FALSE,"D6-4",NA,NA,"5de27c03625af00010e799f8"
"4846",6,0,9,"heiko_blume_schokolade",6.99,FALSE,"D6-4",NA,NA,"5de27c03625af00010e799f8"
"4847",6,0,10,"deluxe_irish_cream",6.99,FALSE,"D6-4",NA,NA,"5de27c03625af00010e799f8"
"4848",7,0,0,"amarula",9.99,FALSE,"D6-1",NA,NA,"5de27c03625af00010e799f8"
"4849",7,0,1,"tartufolikor_blanco",5.99,FALSE,"D6-1",NA,NA,"5de27c03625af00010e799f8"
"4850",7,0,2,"deluxe_irish_cream",6.99,FALSE,"D6-1",NA,NA,"5de27c03625af00010e799f8"
"4851",7,0,3,"heiko_blume_schokolade",6.99,FALSE,"D6-1",NA,NA,"5de27c03625af00010e799f8"
"4852",7,0,4,"high_mountains",3.99,FALSE,"D6-1",NA,NA,"5de27c03625af00010e799f8"
"4853",7,0,5,"baileys_500ml",7.99,FALSE,"D6-1",NA,NA,"5de27c03625af00010e799f8"
"4854",7,0,6,"licor_43",11.99,FALSE,"D6-1",NA,NA,"5de27c03625af00010e799f8"
"4855",7,0,7,"baileys_700ml",10.99,TRUE,"D6-1",2077,13.99,"5de27c03625af00010e799f8"
"4856",7,0,8,"kronenhof_advocaat",3.99,FALSE,"D6-1",NA,NA,"5de27c03625af00010e799f8"
"4857",7,0,9,"southern_comfort",13.99,FALSE,"D6-1",NA,NA,"5de27c03625af00010e799f8"
"4858",7,0,10,"armilar_amaretto",4.99,FALSE,"D6-1",NA,NA,"5de27c03625af00010e799f8"
"4859",8,0,0,"tartufolikor_blanco",5.99,FALSE,"D6-2",NA,NA,"5de27c03625af00010e799f8"
"4860",8,0,1,"baileys_700ml",11.99,FALSE,"D6-2",NA,12.99,"5de27c03625af00010e799f8"
"4861",8,0,2,"amarula",9.99,FALSE,"D6-2",NA,NA,"5de27c03625af00010e799f8"
"4862",8,0,3,"licor_43",11.99,FALSE,"D6-2",NA,NA,"5de27c03625af00010e799f8"
"4863",8,0,4,"deluxe_irish_cream",6.99,FALSE,"D6-2",NA,NA,"5de27c03625af00010e799f8"
"4864",8,0,5,"baileys_500ml",7.99,FALSE,"D6-2",NA,NA,"5de27c03625af00010e799f8"
"4865",8,0,6,"heiko_blume_schokolade",6.99,FALSE,"D6-2",NA,NA,"5de27c03625af00010e799f8"
"4866",8,0,7,"high_mountains",3.99,FALSE,"D6-2",NA,NA,"5de27c03625af00010e799f8"
"4867",8,0,8,"kronenhof_advocaat",3.99,TRUE,"D6-2",1567,NA,"5de27c03625af00010e799f8"
"4868",8,0,9,"armilar_amaretto",4.99,FALSE,"D6-2",NA,NA,"5de27c03625af00010e799f8"
"4869",8,0,10,"southern_comfort",13.99,FALSE,"D6-2",NA,NA,"5de27c03625af00010e799f8"
"4870",9,0,0,"lillet",10.99,FALSE,"D6-fill_7",NA,18.99,"5de27c03625af00010e799f8"
"4871",9,0,1,"gordons_export_large",11.99,FALSE,"D6-fill_7",NA,NA,"5de27c03625af00010e799f8"
"4872",9,0,2,"rotkappchen",3.99,FALSE,"D6-fill_7",NA,NA,"5de27c03625af00010e799f8"
"4873",9,0,3,"smirnoff_de",10.99,FALSE,"D6-fill_7",NA,NA,"5de27c03625af00010e799f8"
"4874",9,0,4,"malibu",10.99,TRUE,"D6-fill_7",2529,16.99,"5de27c03625af00010e799f8"
"4875",9,0,5,"gordons_export",9.99,FALSE,"D6-fill_7",NA,NA,"5de27c03625af00010e799f8"
"4876",9,0,6,"blanchet_white",4.99,FALSE,"D6-fill_7",NA,7.99,"5de27c03625af00010e799f8"
"4877",9,0,7,"blanchet_red",4.99,FALSE,"D6-fill_7",NA,NA,"5de27c03625af00010e799f8"
"5445",0,0,0,"gordons_export",9.99,FALSE,"D6-fill_7",NA,NA,"5de27e2b625af00010e79cd2"
"5446",0,0,1,"gordons_export_large",11.99,FALSE,"D6-fill_7",NA,NA,"5de27e2b625af00010e79cd2"
"5447",0,0,2,"smirnoff_de",10.99,FALSE,"D6-fill_7",NA,NA,"5de27e2b625af00010e79cd2"
"5448",0,0,3,"blanchet_white",4.99,FALSE,"D6-fill_7",NA,7.99,"5de27e2b625af00010e79cd2"
"5449",0,0,4,"blanchet_red",4.99,FALSE,"D6-fill_7",NA,NA,"5de27e2b625af00010e79cd2"
"5450",0,0,5,"lillet",10.99,FALSE,"D6-fill_7",NA,18.99,"5de27e2b625af00010e79cd2"
"5451",0,0,6,"rotkappchen",3.99,FALSE,"D6-fill_7",NA,NA,"5de27e2b625af00010e79cd2"
"5452",0,0,7,"malibu",10.99,TRUE,"D6-fill_7",39449,16.99,"5de27e2b625af00010e79cd2"
"5453",1,0,0,"southern_comfort",13.99,FALSE,"D5-2",NA,NA,"5de27e2b625af00010e79cd2"
"5454",1,0,1,"tartufolikor_blanco",5.99,FALSE,"D5-2",NA,NA,"5de27e2b625af00010e79cd2"
"5455",1,0,2,"licor_43",11.99,FALSE,"D5-2",NA,NA,"5de27e2b625af00010e79cd2"
"5456",1,0,3,"high_mountains",3.99,FALSE,"D5-2",NA,NA,"5de27e2b625af00010e79cd2"
"5457",1,0,4,"deluxe_irish_cream",6.99,FALSE,"D5-2",NA,NA,"5de27e2b625af00010e79cd2"
"5458",1,0,5,"kronenhof_advocaat",3.99,FALSE,"D5-2",NA,NA,"5de27e2b625af00010e79cd2"
"5459",1,0,6,"armilar_amaretto",4.99,FALSE,"D5-2",NA,NA,"5de27e2b625af00010e79cd2"
"5460",1,0,7,"heiko_blume_schokolade",6.99,TRUE,"D5-2",810,NA,"5de27e2b625af00010e79cd2"
"5461",1,0,8,"amarula",9.99,FALSE,"D5-2",NA,NA,"5de27e2b625af00010e79cd2"
"5462",1,0,9,"baileys_700ml",11.99,FALSE,"D5-2",NA,12.99,"5de27e2b625af00010e79cd2"
"5463",2,0,0,"malibu",10.99,FALSE,"D6-fill_5",NA,17.99,"5de27e2b625af00010e79cd2"
"5464",2,0,1,"gordons_export",9.99,FALSE,"D6-fill_5",NA,NA,"5de27e2b625af00010e79cd2"
"5465",2,0,2,"smirnoff_de",10.99,TRUE,"D6-fill_5",127,NA,"5de27e2b625af00010e79cd2"
"5466",2,0,3,"blanchet_red",4.99,FALSE,"D6-fill_5",NA,NA,"5de27e2b625af00010e79cd2"
"5467",2,0,4,"lillet",10.99,FALSE,"D6-fill_5",NA,NA,"5de27e2b625af00010e79cd2"
"5468",2,0,5,"gordons_export_large",11.99,FALSE,"D6-fill_5",NA,14.99,"5de27e2b625af00010e79cd2"
"5469",2,0,6,"blanchet_white",4.99,FALSE,"D6-fill_5",NA,NA,"5de27e2b625af00010e79cd2"
"5470",2,0,7,"rotkappchen",3.99,FALSE,"D6-fill_5",NA,NA,"5de27e2b625af00010e79cd2"
"5471",3,0,0,"armilar_amaretto",4.99,FALSE,"D6-6",NA,NA,"5de27e2b625af00010e79cd2"
"5472",3,0,1,"deluxe_irish_cream",6.99,FALSE,"D6-6",NA,NA,"5de27e2b625af00010e79cd2"
"5473",3,0,2,"licor_43",11.99,TRUE,"D6-6",383,NA,"5de27e2b625af00010e79cd2"
"5474",3,0,3,"heiko_blume_schokolade",6.99,FALSE,"D6-6",NA,NA,"5de27e2b625af00010e79cd2"
"5475",3,0,4,"high_mountains",3.99,FALSE,"D6-6",NA,NA,"5de27e2b625af00010e79cd2"
"5476",3,0,5,"amarula",9.99,FALSE,"D6-6",NA,NA,"5de27e2b625af00010e79cd2"
"5477",3,0,6,"tartufolikor_blanco",5.99,FALSE,"D6-6",NA,NA,"5de27e2b625af00010e79cd2"
"5478",3,0,7,"kronenhof_advocaat",3.99,FALSE,"D6-6",NA,NA,"5de27e2b625af00010e79cd2"
"5479",3,0,8,"baileys_700ml",10.99,FALSE,"D6-6",NA,11.99,"5de27e2b625af00010e79cd2"
"5480",3,0,9,"baileys_500ml",7.99,FALSE,"D6-6",NA,NA,"5de27e2b625af00010e79cd2"
"5481",3,0,10,"southern_comfort",13.99,FALSE,"D6-6",NA,NA,"5de27e2b625af00010e79cd2"
"5482",4,0,0,"smirnoff_de",10.99,FALSE,"D5-fill_8",NA,NA,"5de27e2b625af00010e79cd2"
"5483",4,0,1,"malibu",10.99,FALSE,"D5-fill_8",NA,17.99,"5de27e2b625af00010e79cd2"
"5484",4,0,2,"gordons_export_large",11.99,FALSE,"D5-fill_8",NA,16.99,"5de27e2b625af00010e79cd2"
"5485",4,0,3,"blanchet_red",4.99,TRUE,"D5-fill_8",625,NA,"5de27e2b625af00010e79cd2"
"5486",4,0,4,"rotkappchen",3.99,FALSE,"D5-fill_8",NA,6.99,"5de27e2b625af00010e79cd2"
"5487",4,0,5,"lillet",10.99,FALSE,"D5-fill_8",NA,NA,"5de27e2b625af00010e79cd2"
"5488",4,0,6,"gordons_export",9.99,FALSE,"D5-fill_8",NA,NA,"5de27e2b625af00010e79cd2"
"5489",4,0,7,"blanchet_white",4.99,FALSE,"D5-fill_8",NA,NA,"5de27e2b625af00010e79cd2"
"5490",5,0,0,"gordons_export",9.99,TRUE,"D5-fill_4",3027,NA,"5de27e2b625af00010e79cd2"
"5491",5,0,1,"lillet",10.99,FALSE,"D5-fill_4",NA,NA,"5de27e2b625af00010e79cd2"
"5492",5,0,2,"blanchet_red",4.99,FALSE,"D5-fill_4",NA,12.99,"5de27e2b625af00010e79cd2"
"5493",5,0,3,"blanchet_white",4.99,FALSE,"D5-fill_4",NA,NA,"5de27e2b625af00010e79cd2"
"5494",5,0,4,"gordons_export_large",11.99,FALSE,"D5-fill_4",NA,16.99,"5de27e2b625af00010e79cd2"
"5495",5,0,5,"malibu",10.99,FALSE,"D5-fill_4",NA,NA,"5de27e2b625af00010e79cd2"
"5496",5,0,6,"rotkappchen",3.99,FALSE,"D5-fill_4",NA,6.99,"5de27e2b625af00010e79cd2"
"5497",5,0,7,"smirnoff_de",10.99,FALSE,"D5-fill_4",NA,NA,"5de27e2b625af00010e79cd2"
"5498",6,0,0,"heiko_blume_schokolade",6.99,FALSE,"D6-3",NA,NA,"5de27e2b625af00010e79cd2"
"5499",6,0,1,"deluxe_irish_cream",6.99,FALSE,"D6-3",NA,NA,"5de27e2b625af00010e79cd2"
"5500",6,0,2,"southern_comfort",13.99,FALSE,"D6-3",NA,NA,"5de27e2b625af00010e79cd2"
"5501",6,0,3,"licor_43",11.99,FALSE,"D6-3",NA,NA,"5de27e2b625af00010e79cd2"
"5502",6,0,4,"armilar_amaretto",4.99,TRUE,"D6-3",576,NA,"5de27e2b625af00010e79cd2"
"5503",6,0,5,"baileys_700ml",10.99,FALSE,"D6-3",NA,12.99,"5de27e2b625af00010e79cd2"
"5504",6,0,6,"high_mountains",3.99,FALSE,"D6-3",NA,NA,"5de27e2b625af00010e79cd2"
"5505",6,0,7,"amarula",9.99,FALSE,"D6-3",NA,NA,"5de27e2b625af00010e79cd2"
"5506",6,0,8,"baileys_500ml",7.99,FALSE,"D6-3",NA,NA,"5de27e2b625af00010e79cd2"
"5507",6,0,9,"kronenhof_advocaat",3.99,FALSE,"D6-3",NA,NA,"5de27e2b625af00010e79cd2"
"5508",6,0,10,"tartufolikor_blanco",5.99,FALSE,"D6-3",NA,NA,"5de27e2b625af00010e79cd2"
"5509",7,0,0,"tartufolikor_blanco",5.99,FALSE,"D6-8",NA,NA,"5de27e2b625af00010e79cd2"
"5510",7,0,1,"heiko_blume_schokolade",6.99,FALSE,"D6-8",NA,NA,"5de27e2b625af00010e79cd2"
"5511",7,0,2,"armilar_amaretto",4.99,FALSE,"D6-8",NA,NA,"5de27e2b625af00010e79cd2"
"5512",7,0,3,"kronenhof_advocaat",3.99,FALSE,"D6-8",NA,NA,"5de27e2b625af00010e79cd2"
"5513",7,0,4,"high_mountains",3.99,FALSE,"D6-8",NA,NA,"5de27e2b625af00010e79cd2"
"5514",7,0,5,"licor_43",11.99,TRUE,"D6-8",851,NA,"5de27e2b625af00010e79cd2"
"5515",7,0,6,"southern_comfort",13.99,FALSE,"D6-8",NA,NA,"5de27e2b625af00010e79cd2"
"5516",7,0,7,"baileys_700ml",8.99,FALSE,"D6-8",NA,11.99,"5de27e2b625af00010e79cd2"
"5517",7,0,8,"deluxe_irish_cream",6.99,FALSE,"D6-8",NA,NA,"5de27e2b625af00010e79cd2"
"5518",7,0,9,"baileys_500ml",7.99,FALSE,"D6-8",NA,NA,"5de27e2b625af00010e79cd2"
"5519",7,0,10,"amarula",9.99,FALSE,"D6-8",NA,NA,"5de27e2b625af00010e79cd2"
"5520",8,0,0,"deluxe_irish_cream",6.99,FALSE,"D5-1",NA,NA,"5de27e2b625af00010e79cd2"
"5521",8,0,1,"amarula",9.99,FALSE,"D5-1",NA,NA,"5de27e2b625af00010e79cd2"
"5522",8,0,2,"heiko_blume_schokolade",6.99,FALSE,"D5-1",NA,NA,"5de27e2b625af00010e79cd2"
"5523",8,0,3,"armilar_amaretto",4.99,TRUE,"D5-1",840,NA,"5de27e2b625af00010e79cd2"
"5524",8,0,4,"licor_43",11.99,FALSE,"D5-1",NA,NA,"5de27e2b625af00010e79cd2"
"5525",8,0,5,"high_mountains",3.99,FALSE,"D5-1",NA,NA,"5de27e2b625af00010e79cd2"
"5526",8,0,6,"kronenhof_advocaat",3.99,FALSE,"D5-1",NA,NA,"5de27e2b625af00010e79cd2"
"5527",8,0,7,"southern_comfort",13.99,FALSE,"D5-1",NA,NA,"5de27e2b625af00010e79cd2"
"5528",8,0,8,"baileys_700ml",10.99,FALSE,"D5-1",NA,13.99,"5de27e2b625af00010e79cd2"
"5529",8,0,9,"tartufolikor_blanco",5.99,FALSE,"D5-1",NA,NA,"5de27e2b625af00010e79cd2"
"5530",9,0,0,"blanchet_red",4.99,FALSE,"D5-fill_2",NA,NA,"5de27e2b625af00010e79cd2"
"5531",9,0,1,"blanchet_white",4.99,TRUE,"D5-fill_2",811,11.99,"5de27e2b625af00010e79cd2"
"5532",9,0,2,"gordons_export",9.99,FALSE,"D5-fill_2",NA,13.99,"5de27e2b625af00010e79cd2"
"5533",9,0,3,"gordons_export_large",11.99,FALSE,"D5-fill_2",NA,NA,"5de27e2b625af00010e79cd2"
"5534",9,0,4,"malibu",10.99,FALSE,"D5-fill_2",NA,18.99,"5de27e2b625af00010e79cd2"
"5535",9,0,5,"lillet",10.99,FALSE,"D5-fill_2",NA,12.99,"5de27e2b625af00010e79cd2"
"5536",9,0,6,"rotkappchen",3.99,FALSE,"D5-fill_2",NA,NA,"5de27e2b625af00010e79cd2"
"5537",9,0,7,"smirnoff_de",10.99,FALSE,"D5-fill_2",NA,NA,"5de27e2b625af00010e79cd2"
"19915",0,0,0,"high_mountains",3.99,FALSE,"D5-4",NA,NA,"5de29c64625af00010e7df47"
"19916",0,0,1,"armilar_amaretto",4.99,FALSE,"D5-4",NA,NA,"5de29c64625af00010e7df47"
"19917",0,0,2,"southern_comfort",13.99,FALSE,"D5-4",NA,NA,"5de29c64625af00010e7df47"
"19918",0,0,3,"tartufolikor_blanco",5.99,FALSE,"D5-4",NA,NA,"5de29c64625af00010e7df47"
"19919",0,0,4,"licor_43",11.99,TRUE,"D5-4",6687,NA,"5de29c64625af00010e7df47"
"19920",0,0,5,"baileys_700ml",9.99,FALSE,"D5-4",NA,12.99,"5de29c64625af00010e7df47"
"19921",0,0,6,"amarula",9.99,FALSE,"D5-4",NA,NA,"5de29c64625af00010e7df47"
"19922",0,0,7,"heiko_blume_schokolade",6.99,FALSE,"D5-4",NA,NA,"5de29c64625af00010e7df47"
"19923",0,0,8,"kronenhof_advocaat",3.99,FALSE,"D5-4",NA,NA,"5de29c64625af00010e7df47"
"19924",0,0,9,"deluxe_irish_cream",6.99,FALSE,"D5-4",NA,NA,"5de29c64625af00010e7df47"
"19925",1,0,0,"lillet",10.99,FALSE,"D5-fill_1",NA,NA,"5de29c64625af00010e7df47"
"19926",1,0,1,"gordons_export",9.99,FALSE,"D5-fill_1",NA,NA,"5de29c64625af00010e7df47"
"19927",1,0,2,"blanchet_white",4.99,FALSE,"D5-fill_1",NA,NA,"5de29c64625af00010e7df47"
"19928",1,0,3,"gordons_export_large",11.99,FALSE,"D5-fill_1",NA,17.99,"5de29c64625af00010e7df47"
"19929",1,0,4,"rotkappchen",3.99,TRUE,"D5-fill_1",1789,NA,"5de29c64625af00010e7df47"
"19930",1,0,5,"blanchet_red",4.99,FALSE,"D5-fill_1",NA,NA,"5de29c64625af00010e7df47"
"19931",1,0,6,"smirnoff_de",10.99,FALSE,"D5-fill_1",NA,11.99,"5de29c64625af00010e7df47"
"19932",1,0,7,"malibu",10.99,FALSE,"D5-fill_1",NA,NA,"5de29c64625af00010e7df47"
"19933",2,0,0,"high_mountains",3.99,FALSE,"D6-4",NA,NA,"5de29c64625af00010e7df47"
"19934",2,0,1,"kronenhof_advocaat",3.99,FALSE,"D6-4",NA,NA,"5de29c64625af00010e7df47"
"19935",2,0,2,"southern_comfort",13.99,FALSE,"D6-4",NA,NA,"5de29c64625af00010e7df47"
"19936",2,0,3,"licor_43",11.99,FALSE,"D6-4",NA,NA,"5de29c64625af00010e7df47"
"19937",2,0,4,"deluxe_irish_cream",6.99,TRUE,"D6-4",2268,NA,"5de29c64625af00010e7df47"
"19938",2,0,5,"heiko_blume_schokolade",6.99,FALSE,"D6-4",NA,NA,"5de29c64625af00010e7df47"
"19939",2,0,6,"baileys_500ml",7.99,FALSE,"D6-4",NA,NA,"5de29c64625af00010e7df47"
"19940",2,0,7,"baileys_700ml",9.99,FALSE,"D6-4",NA,12.99,"5de29c64625af00010e7df47"
"19941",2,0,8,"tartufolikor_blanco",5.99,FALSE,"D6-4",NA,NA,"5de29c64625af00010e7df47"
"19942",2,0,9,"armilar_amaretto",4.99,FALSE,"D6-4",NA,NA,"5de29c64625af00010e7df47"
"19943",2,0,10,"amarula",9.99,FALSE,"D6-4",NA,NA,"5de29c64625af00010e7df47"
"19944",3,0,0,"deluxe_irish_cream",6.99,FALSE,"D5-3",NA,NA,"5de29c64625af00010e7df47"
"19945",3,0,1,"heiko_blume_schokolade",6.99,FALSE,"D5-3",NA,NA,"5de29c64625af00010e7df47"
"19946",3,0,2,"amarula",9.99,FALSE,"D5-3",NA,NA,"5de29c64625af00010e7df47"
"19947",3,0,3,"licor_43",11.99,FALSE,"D5-3",NA,NA,"5de29c64625af00010e7df47"
"19948",3,0,4,"armilar_amaretto",4.99,FALSE,"D5-3",NA,NA,"5de29c64625af00010e7df47"
"19949",3,0,5,"kronenhof_advocaat",3.99,FALSE,"D5-3",NA,NA,"5de29c64625af00010e7df47"
"19950",3,0,6,"high_mountains",3.99,FALSE,"D5-3",NA,NA,"5de29c64625af00010e7df47"
"19951",3,0,7,"baileys_700ml",10.99,TRUE,"D5-3",1767,12.99,"5de29c64625af00010e7df47"
"19952",3,0,8,"tartufolikor_blanco",5.99,FALSE,"D5-3",NA,NA,"5de29c64625af00010e7df47"
"19953",3,0,9,"southern_comfort",13.99,FALSE,"D5-3",NA,NA,"5de29c64625af00010e7df47"
"19954",4,0,0,"blanchet_white",4.99,FALSE,"D5-fill_6",NA,NA,"5de29c64625af00010e7df47"
"19955",4,0,1,"rotkappchen",3.99,TRUE,"D5-fill_6",1152,NA,"5de29c64625af00010e7df47"
"19956",4,0,2,"gordons_export_large",11.99,FALSE,"D5-fill_6",NA,14.99,"5de29c64625af00010e7df47"
"19957",4,0,3,"smirnoff_de",10.99,FALSE,"D5-fill_6",NA,12.99,"5de29c64625af00010e7df47"
"19958",4,0,4,"gordons_export",9.99,FALSE,"D5-fill_6",NA,NA,"5de29c64625af00010e7df47"
"19959",4,0,5,"lillet",10.99,FALSE,"D5-fill_6",NA,14.99,"5de29c64625af00010e7df47"
"19960",4,0,6,"malibu",10.99,FALSE,"D5-fill_6",NA,NA,"5de29c64625af00010e7df47"
"19961",4,0,7,"blanchet_red",4.99,FALSE,"D5-fill_6",NA,11.99,"5de29c64625af00010e7df47"
"19962",5,0,0,"malibu",10.99,FALSE,"D5-fill_2",NA,18.99,"5de29c64625af00010e7df47"
"19963",5,0,1,"blanchet_white",4.99,FALSE,"D5-fill_2",NA,11.99,"5de29c64625af00010e7df47"
"19964",5,0,2,"lillet",10.99,FALSE,"D5-fill_2",NA,12.99,"5de29c64625af00010e7df47"
"19965",5,0,3,"rotkappchen",3.99,TRUE,"D5-fill_2",1007,NA,"5de29c64625af00010e7df47"
"19966",5,0,4,"blanchet_red",4.99,FALSE,"D5-fill_2",NA,NA,"5de29c64625af00010e7df47"
"19967",5,0,5,"smirnoff_de",10.99,FALSE,"D5-fill_2",NA,NA,"5de29c64625af00010e7df47"
"19968",5,0,6,"gordons_export_large",11.99,FALSE,"D5-fill_2",NA,NA,"5de29c64625af00010e7df47"
"19969",5,0,7,"gordons_export",9.99,FALSE,"D5-fill_2",NA,13.99,"5de29c64625af00010e7df47"
"19970",6,0,0,"armilar_amaretto",4.99,FALSE,"D6-8",NA,NA,"5de29c64625af00010e7df47"
"19971",6,0,1,"high_mountains",3.99,FALSE,"D6-8",NA,NA,"5de29c64625af00010e7df47"
"19972",6,0,2,"heiko_blume_schokolade",6.99,FALSE,"D6-8",NA,NA,"5de29c64625af00010e7df47"
"19973",6,0,3,"amarula",9.99,FALSE,"D6-8",NA,NA,"5de29c64625af00010e7df47"
"19974",6,0,4,"baileys_700ml",8.99,FALSE,"D6-8",NA,11.99,"5de29c64625af00010e7df47"
"19975",6,0,5,"deluxe_irish_cream",6.99,FALSE,"D6-8",NA,NA,"5de29c64625af00010e7df47"
"19976",6,0,6,"licor_43",11.99,TRUE,"D6-8",1568,NA,"5de29c64625af00010e7df47"
"19977",6,0,7,"southern_comfort",13.99,FALSE,"D6-8",NA,NA,"5de29c64625af00010e7df47"
"19978",6,0,8,"tartufolikor_blanco",5.99,FALSE,"D6-8",NA,NA,"5de29c64625af00010e7df47"
"19979",6,0,9,"baileys_500ml",7.99,FALSE,"D6-8",NA,NA,"5de29c64625af00010e7df47"
"19980",6,0,10,"kronenhof_advocaat",3.99,FALSE,"D6-8",NA,NA,"5de29c64625af00010e7df47"
"19981",7,0,0,"baileys_500ml",7.99,FALSE,"D6-6",NA,NA,"5de29c64625af00010e7df47"
"19982",7,0,1,"licor_43",11.99,FALSE,"D6-6",NA,NA,"5de29c64625af00010e7df47"
"19983",7,0,2,"deluxe_irish_cream",6.99,FALSE,"D6-6",NA,NA,"5de29c64625af00010e7df47"
"19984",7,0,3,"heiko_blume_schokolade",6.99,FALSE,"D6-6",NA,NA,"5de29c64625af00010e7df47"
"19985",7,0,4,"high_mountains",3.99,FALSE,"D6-6",NA,NA,"5de29c64625af00010e7df47"
"19986",7,0,5,"kronenhof_advocaat",3.99,FALSE,"D6-6",NA,NA,"5de29c64625af00010e7df47"
"19987",7,0,6,"baileys_700ml",10.99,TRUE,"D6-6",1531,11.99,"5de29c64625af00010e7df47"
"19988",7,0,7,"southern_comfort",13.99,FALSE,"D6-6",NA,NA,"5de29c64625af00010e7df47"
"19989",7,0,8,"armilar_amaretto",4.99,FALSE,"D6-6",NA,NA,"5de29c64625af00010e7df47"
"19990",7,0,9,"tartufolikor_blanco",5.99,FALSE,"D6-6",NA,NA,"5de29c64625af00010e7df47"
"19991",7,0,10,"amarula",9.99,FALSE,"D6-6",NA,NA,"5de29c64625af00010e7df47"
"19992",8,0,0,"gordons_export_large",11.99,FALSE,"D6-fill_7",NA,NA,"5de29c64625af00010e7df47"
"19993",8,0,1,"malibu",10.99,FALSE,"D6-fill_7",NA,16.99,"5de29c64625af00010e7df47"
"19994",8,0,2,"rotkappchen",3.99,TRUE,"D6-fill_7",1014,NA,"5de29c64625af00010e7df47"
"19995",8,0,3,"gordons_export",9.99,FALSE,"D6-fill_7",NA,NA,"5de29c64625af00010e7df47"
"19996",8,0,4,"lillet",10.99,FALSE,"D6-fill_7",NA,18.99,"5de29c64625af00010e7df47"
"19997",8,0,5,"blanchet_red",4.99,FALSE,"D6-fill_7",NA,NA,"5de29c64625af00010e7df47"
"19998",8,0,6,"blanchet_white",4.99,FALSE,"D6-fill_7",NA,7.99,"5de29c64625af00010e7df47"
"19999",8,0,7,"smirnoff_de",10.99,FALSE,"D6-fill_7",NA,NA,"5de29c64625af00010e7df47"
"20000",9,0,0,"malibu",10.99,FALSE,"D6-fill_8",NA,NA,"5de29c64625af00010e7df47"
"20001",9,0,1,"blanchet_white",4.99,FALSE,"D6-fill_8",NA,10.99,"5de29c64625af00010e7df47"
"20002",9,0,2,"rotkappchen",3.99,TRUE,"D6-fill_8",555,10.99,"5de29c64625af00010e7df47"
"20003",9,0,3,"lillet",10.99,FALSE,"D6-fill_8",NA,NA,"5de29c64625af00010e7df47"
"20004",9,0,4,"gordons_export",9.99,FALSE,"D6-fill_8",NA,NA,"5de29c64625af00010e7df47"
"20005",9,0,5,"smirnoff_de",10.99,FALSE,"D6-fill_8",NA,NA,"5de29c64625af00010e7df47"
"20006",9,0,6,"gordons_export_large",11.99,FALSE,"D6-fill_8",NA,NA,"5de29c64625af00010e7df47"
"20007",9,0,7,"blanchet_red",4.99,FALSE,"D6-fill_8",NA,NA,"5de29c64625af00010e7df47"
"20592",0,0,0,"tartufolikor_blanco",5.99,FALSE,"D5-7",NA,NA,"5de29d7b625af00010e7e116"
"20593",0,0,1,"kronenhof_advocaat",3.99,FALSE,"D5-7",NA,NA,"5de29d7b625af00010e7e116"
"20594",0,0,2,"heiko_blume_schokolade",6.99,FALSE,"D5-7",NA,NA,"5de29d7b625af00010e7e116"
"20595",0,0,3,"baileys_700ml",9.99,TRUE,"D5-7",12976,11.99,"5de29d7b625af00010e7e116"
"20596",0,0,4,"deluxe_irish_cream",6.99,FALSE,"D5-7",NA,NA,"5de29d7b625af00010e7e116"
"20597",0,0,5,"armilar_amaretto",4.99,FALSE,"D5-7",NA,NA,"5de29d7b625af00010e7e116"
"20598",0,0,6,"amarula",9.99,FALSE,"D5-7",NA,NA,"5de29d7b625af00010e7e116"
"20599",0,0,7,"high_mountains",3.99,FALSE,"D5-7",NA,NA,"5de29d7b625af00010e7e116"
"20600",0,0,8,"southern_comfort",13.99,FALSE,"D5-7",NA,NA,"5de29d7b625af00010e7e116"
"20601",0,0,9,"licor_43",11.99,FALSE,"D5-7",NA,NA,"5de29d7b625af00010e7e116"
"20602",1,0,0,"southern_comfort",13.99,FALSE,"D6-3",NA,NA,"5de29d7b625af00010e7e116"
"20603",1,0,1,"tartufolikor_blanco",5.99,FALSE,"D6-3",NA,NA,"5de29d7b625af00010e7e116"
"20604",1,0,2,"armilar_amaretto",4.99,FALSE,"D6-3",NA,NA,"5de29d7b625af00010e7e116"
"20605",1,0,3,"heiko_blume_schokolade",6.99,FALSE,"D6-3",NA,NA,"5de29d7b625af00010e7e116"
"20606",1,0,4,"deluxe_irish_cream",6.99,FALSE,"D6-3",NA,NA,"5de29d7b625af00010e7e116"
"20607",1,0,5,"amarula",9.99,FALSE,"D6-3",NA,NA,"5de29d7b625af00010e7e116"
"20608",1,0,6,"high_mountains",3.99,FALSE,"D6-3",NA,NA,"5de29d7b625af00010e7e116"
"20609",1,0,7,"licor_43",11.99,FALSE,"D6-3",NA,NA,"5de29d7b625af00010e7e116"
"20610",1,0,8,"baileys_700ml",10.99,TRUE,"D6-3",13037,12.99,"5de29d7b625af00010e7e116"
"20611",1,0,9,"baileys_500ml",7.99,FALSE,"D6-3",NA,NA,"5de29d7b625af00010e7e116"
"20612",1,0,10,"kronenhof_advocaat",3.99,FALSE,"D6-3",NA,NA,"5de29d7b625af00010e7e116"
"20613",2,0,0,"baileys_700ml",10.99,TRUE,"D5-1",7680,13.99,"5de29d7b625af00010e7e116"
"20614",2,0,1,"armilar_amaretto",4.99,FALSE,"D5-1",NA,NA,"5de29d7b625af00010e7e116"
"20615",2,0,2,"tartufolikor_blanco",5.99,FALSE,"D5-1",NA,NA,"5de29d7b625af00010e7e116"
"20616",2,0,3,"heiko_blume_schokolade",6.99,FALSE,"D5-1",NA,NA,"5de29d7b625af00010e7e116"
"20617",2,0,4,"high_mountains",3.99,FALSE,"D5-1",NA,NA,"5de29d7b625af00010e7e116"
"20618",2,0,5,"kronenhof_advocaat",3.99,FALSE,"D5-1",NA,NA,"5de29d7b625af00010e7e116"
"20619",2,0,6,"licor_43",11.99,FALSE,"D5-1",NA,NA,"5de29d7b625af00010e7e116"
"20620",2,0,7,"southern_comfort",13.99,FALSE,"D5-1",NA,NA,"5de29d7b625af00010e7e116"
"20621",2,0,8,"deluxe_irish_cream",6.99,FALSE,"D5-1",NA,NA,"5de29d7b625af00010e7e116"
"20622",2,0,9,"amarula",9.99,FALSE,"D5-1",NA,NA,"5de29d7b625af00010e7e116"
"20623",3,0,0,"heiko_blume_schokolade",6.99,FALSE,"D6-1",NA,NA,"5de29d7b625af00010e7e116"
"20624",3,0,1,"baileys_500ml",7.99,FALSE,"D6-1",NA,NA,"5de29d7b625af00010e7e116"
"20625",3,0,2,"armilar_amaretto",4.99,FALSE,"D6-1",NA,NA,"5de29d7b625af00010e7e116"
"20626",3,0,3,"deluxe_irish_cream",6.99,FALSE,"D6-1",NA,NA,"5de29d7b625af00010e7e116"
"20627",3,0,4,"amarula",9.99,FALSE,"D6-1",NA,NA,"5de29d7b625af00010e7e116"
"20628",3,0,5,"licor_43",11.99,FALSE,"D6-1",NA,NA,"5de29d7b625af00010e7e116"
"20629",3,0,6,"baileys_700ml",10.99,TRUE,"D6-1",4841,13.99,"5de29d7b625af00010e7e116"
"20630",3,0,7,"kronenhof_advocaat",3.99,FALSE,"D6-1",NA,NA,"5de29d7b625af00010e7e116"
"20631",3,0,8,"high_mountains",3.99,FALSE,"D6-1",NA,NA,"5de29d7b625af00010e7e116"
"20632",3,0,9,"tartufolikor_blanco",5.99,FALSE,"D6-1",NA,NA,"5de29d7b625af00010e7e116"
"20633",3,0,10,"southern_comfort",13.99,FALSE,"D6-1",NA,NA,"5de29d7b625af00010e7e116"
"20634",4,0,0,"blanchet_red",4.99,FALSE,"D6-fill_3",NA,NA,"5de29d7b625af00010e7e116"
"20635",4,0,1,"malibu",10.99,FALSE,"D6-fill_3",NA,NA,"5de29d7b625af00010e7e116"
"20636",4,0,2,"gordons_export_large",11.99,FALSE,"D6-fill_3",NA,13.99,"5de29d7b625af00010e7e116"
"20637",4,0,3,"lillet",10.99,FALSE,"D6-fill_3",NA,15.99,"5de29d7b625af00010e7e116"
"20638",4,0,4,"gordons_export",9.99,FALSE,"D6-fill_3",NA,NA,"5de29d7b625af00010e7e116"
"20639",4,0,5,"blanchet_white",4.99,TRUE,"D6-fill_3",14377,10.99,"5de29d7b625af00010e7e116"
"20640",4,0,6,"smirnoff_de",10.99,FALSE,"D6-fill_3",NA,12.99,"5de29d7b625af00010e7e116"
"20641",4,0,7,"rotkappchen",3.99,FALSE,"D6-fill_3",NA,NA,"5de29d7b625af00010e7e116"
"20642",5,0,0,"malibu",10.99,TRUE,"D5-fill_3",15329,NA,"5de29d7b625af00010e7e116"
"20643",5,0,1,"lillet",10.99,FALSE,"D5-fill_3",NA,15.99,"5de29d7b625af00010e7e116"
"20644",5,0,2,"gordons_export",9.99,FALSE,"D5-fill_3",NA,11.99,"5de29d7b625af00010e7e116"
"20645",5,0,3,"rotkappchen",3.99,FALSE,"D5-fill_3",NA,9.99,"5de29d7b625af00010e7e116"
"20646",5,0,4,"gordons_export_large",11.99,FALSE,"D5-fill_3",NA,NA,"5de29d7b625af00010e7e116"
"20647",5,0,5,"blanchet_red",4.99,FALSE,"D5-fill_3",NA,NA,"5de29d7b625af00010e7e116"
"20648",5,0,6,"blanchet_white",4.99,FALSE,"D5-fill_3",NA,NA,"5de29d7b625af00010e7e116"
"20649",5,0,7,"smirnoff_de",10.99,FALSE,"D5-fill_3",NA,NA,"5de29d7b625af00010e7e116"
"20650",6,0,0,"high_mountains",3.99,FALSE,"D5-2",NA,NA,"5de29d7b625af00010e7e116"
"20651",6,0,1,"kronenhof_advocaat",3.99,FALSE,"D5-2",NA,NA,"5de29d7b625af00010e7e116"
"20652",6,0,2,"armilar_amaretto",4.99,FALSE,"D5-2",NA,NA,"5de29d7b625af00010e7e116"
"20653",6,0,3,"licor_43",11.99,FALSE,"D5-2",NA,NA,"5de29d7b625af00010e7e116"
"20654",6,0,4,"tartufolikor_blanco",5.99,FALSE,"D5-2",NA,NA,"5de29d7b625af00010e7e116"
"20655",6,0,5,"baileys_700ml",11.99,TRUE,"D5-2",12445,12.99,"5de29d7b625af00010e7e116"
"20656",6,0,6,"amarula",9.99,FALSE,"D5-2",NA,NA,"5de29d7b625af00010e7e116"
"20657",6,0,7,"deluxe_irish_cream",6.99,FALSE,"D5-2",NA,NA,"5de29d7b625af00010e7e116"
"20658",6,0,8,"southern_comfort",13.99,FALSE,"D5-2",NA,NA,"5de29d7b625af00010e7e116"
"20659",6,0,9,"heiko_blume_schokolade",6.99,FALSE,"D5-2",NA,NA,"5de29d7b625af00010e7e116"
"20660",7,0,0,"high_mountains",3.99,FALSE,"D6-2",NA,NA,"5de29d7b625af00010e7e116"
"20661",7,0,1,"baileys_700ml",11.99,FALSE,"D6-2",NA,12.99,"5de29d7b625af00010e7e116"
"20662",7,0,2,"armilar_amaretto",4.99,FALSE,"D6-2",NA,NA,"5de29d7b625af00010e7e116"
"20663",7,0,3,"tartufolikor_blanco",5.99,FALSE,"D6-2",NA,NA,"5de29d7b625af00010e7e116"
"20664",7,0,4,"kronenhof_advocaat",3.99,FALSE,"D6-2",NA,NA,"5de29d7b625af00010e7e116"
"20665",7,0,5,"baileys_500ml",7.99,TRUE,"D6-2",9704,NA,"5de29d7b625af00010e7e116"
"20666",7,0,6,"licor_43",11.99,FALSE,"D6-2",NA,NA,"5de29d7b625af00010e7e116"
"20667",7,0,7,"heiko_blume_schokolade",6.99,FALSE,"D6-2",NA,NA,"5de29d7b625af00010e7e116"
"20668",7,0,8,"southern_comfort",13.99,FALSE,"D6-2",NA,NA,"5de29d7b625af00010e7e116"
"20669",7,0,9,"deluxe_irish_cream",6.99,FALSE,"D6-2",NA,NA,"5de29d7b625af00010e7e116"
"20670",7,0,10,"amarula",9.99,FALSE,"D6-2",NA,NA,"5de29d7b625af00010e7e116"
"20671",8,0,0,"smirnoff_de",10.99,FALSE,"D5-fill_6",NA,12.99,"5de29d7b625af00010e7e116"
"20672",8,0,1,"blanchet_white",4.99,TRUE,"D5-fill_6",3409,NA,"5de29d7b625af00010e7e116"
"20673",8,0,2,"malibu",10.99,FALSE,"D5-fill_6",NA,NA,"5de29d7b625af00010e7e116"
"20674",8,0,3,"rotkappchen",3.99,FALSE,"D5-fill_6",NA,NA,"5de29d7b625af00010e7e116"
"20675",8,0,4,"blanchet_red",4.99,FALSE,"D5-fill_6",NA,11.99,"5de29d7b625af00010e7e116"
"20676",8,0,5,"lillet",10.99,FALSE,"D5-fill_6",NA,14.99,"5de29d7b625af00010e7e116"
"20677",8,0,6,"gordons_export",9.99,FALSE,"D5-fill_6",NA,NA,"5de29d7b625af00010e7e116"
"20678",8,0,7,"gordons_export_large",11.99,FALSE,"D5-fill_6",NA,14.99,"5de29d7b625af00010e7e116"
"20679",9,0,0,"tartufolikor_blanco",5.99,FALSE,"D6-7",NA,NA,"5de29d7b625af00010e7e116"
"20680",9,0,1,"amarula",9.99,FALSE,"D6-7",NA,NA,"5de29d7b625af00010e7e116"
"20681",9,0,2,"baileys_500ml",7.99,FALSE,"D6-7",NA,NA,"5de29d7b625af00010e7e116"
"20682",9,0,3,"licor_43",11.99,FALSE,"D6-7",NA,NA,"5de29d7b625af00010e7e116"
"20683",9,0,4,"high_mountains",3.99,FALSE,"D6-7",NA,NA,"5de29d7b625af00010e7e116"
"20684",9,0,5,"kronenhof_advocaat",3.99,FALSE,"D6-7",NA,NA,"5de29d7b625af00010e7e116"
"20685",9,0,6,"heiko_blume_schokolade",6.99,FALSE,"D6-7",NA,NA,"5de29d7b625af00010e7e116"
"20686",9,0,7,"southern_comfort",13.99,FALSE,"D6-7",NA,NA,"5de29d7b625af00010e7e116"
"20687",9,0,8,"deluxe_irish_cream",6.99,FALSE,"D6-7",NA,NA,"5de29d7b625af00010e7e116"
"20688",9,0,9,"armilar_amaretto",4.99,FALSE,"D6-7",NA,NA,"5de29d7b625af00010e7e116"
"20689",9,0,10,"baileys_700ml",9.99,TRUE,"D6-7",8146,11.99,"5de29d7b625af00010e7e116"
"21352",1,0,0,"licor_43",11.99,FALSE,"D5-4",NA,NA,"5de2a7ab625af00010e7e7ad"
"21353",1,0,1,"baileys_700ml",9.99,FALSE,"D5-4",NA,12.99,"5de2a7ab625af00010e7e7ad"
"21354",1,0,2,"kronenhof_advocaat",3.99,TRUE,"D5-4",7341,NA,"5de2a7ab625af00010e7e7ad"
"21355",1,0,3,"deluxe_irish_cream",6.99,FALSE,"D5-4",NA,NA,"5de2a7ab625af00010e7e7ad"
"21356",1,0,4,"amarula",9.99,FALSE,"D5-4",NA,NA,"5de2a7ab625af00010e7e7ad"
"21357",1,0,5,"armilar_amaretto",4.99,FALSE,"D5-4",NA,NA,"5de2a7ab625af00010e7e7ad"
"21358",1,0,6,"heiko_blume_schokolade",6.99,FALSE,"D5-4",NA,NA,"5de2a7ab625af00010e7e7ad"
"21359",1,0,7,"southern_comfort",13.99,FALSE,"D5-4",NA,NA,"5de2a7ab625af00010e7e7ad"
"21360",1,0,8,"high_mountains",3.99,FALSE,"D5-4",NA,NA,"5de2a7ab625af00010e7e7ad"
"21361",1,0,9,"tartufolikor_blanco",5.99,FALSE,"D5-4",NA,NA,"5de2a7ab625af00010e7e7ad"
"21362",2,0,0,"tartufolikor_blanco",5.99,FALSE,"D5-6",NA,NA,"5de2a7ab625af00010e7e7ad"
"21363",2,0,1,"kronenhof_advocaat",3.99,FALSE,"D5-6",NA,NA,"5de2a7ab625af00010e7e7ad"
"21364",2,0,2,"southern_comfort",13.99,FALSE,"D5-6",NA,NA,"5de2a7ab625af00010e7e7ad"
"21365",2,0,3,"high_mountains",3.99,FALSE,"D5-6",NA,NA,"5de2a7ab625af00010e7e7ad"
"21366",2,0,4,"deluxe_irish_cream",6.99,FALSE,"D5-6",NA,NA,"5de2a7ab625af00010e7e7ad"
"21367",2,0,5,"amarula",9.99,FALSE,"D5-6",NA,NA,"5de2a7ab625af00010e7e7ad"
"21368",2,0,6,"armilar_amaretto",4.99,FALSE,"D5-6",NA,NA,"5de2a7ab625af00010e7e7ad"
"21369",2,0,7,"baileys_700ml",10.99,TRUE,"D5-6",12634,11.99,"5de2a7ab625af00010e7e7ad"
"21370",2,0,8,"licor_43",11.99,FALSE,"D5-6",NA,NA,"5de2a7ab625af00010e7e7ad"
"21371",2,0,9,"heiko_blume_schokolade",6.99,FALSE,"D5-6",NA,NA,"5de2a7ab625af00010e7e7ad"
"21372",3,0,0,"smirnoff_de",10.99,FALSE,"D5-fill_3",NA,NA,"5de2a7ab625af00010e7e7ad"
"21373",3,0,1,"blanchet_white",4.99,FALSE,"D5-fill_3",NA,NA,"5de2a7ab625af00010e7e7ad"
"21374",3,0,2,"gordons_export",9.99,FALSE,"D5-fill_3",NA,11.99,"5de2a7ab625af00010e7e7ad"
"21375",3,0,3,"rotkappchen",3.99,TRUE,"D5-fill_3",9304,9.99,"5de2a7ab625af00010e7e7ad"
"21376",3,0,4,"blanchet_red",4.99,FALSE,"D5-fill_3",NA,NA,"5de2a7ab625af00010e7e7ad"
"21377",3,0,5,"lillet",10.99,FALSE,"D5-fill_3",NA,15.99,"5de2a7ab625af00010e7e7ad"
"21378",3,0,6,"gordons_export_large",11.99,FALSE,"D5-fill_3",NA,NA,"5de2a7ab625af00010e7e7ad"
"21379",3,0,7,"malibu",10.99,FALSE,"D5-fill_3",NA,NA,"5de2a7ab625af00010e7e7ad"
"21380",4,0,0,"lillet",10.99,FALSE,"D6-fill_8",NA,NA,"5de2a7ab625af00010e7e7ad"
"21381",4,0,1,"smirnoff_de",10.99,FALSE,"D6-fill_8",NA,NA,"5de2a7ab625af00010e7e7ad"
"21382",4,0,2,"gordons_export_large",11.99,FALSE,"D6-fill_8",NA,NA,"5de2a7ab625af00010e7e7ad"
"21383",4,0,3,"rotkappchen",3.99,TRUE,"D6-fill_8",8561,10.99,"5de2a7ab625af00010e7e7ad"
"21384",4,0,4,"malibu",10.99,FALSE,"D6-fill_8",NA,NA,"5de2a7ab625af00010e7e7ad"
"21385",4,0,5,"blanchet_white",4.99,FALSE,"D6-fill_8",NA,10.99,"5de2a7ab625af00010e7e7ad"
"21386",4,0,6,"blanchet_red",4.99,FALSE,"D6-fill_8",NA,NA,"5de2a7ab625af00010e7e7ad"
"21387",4,0,7,"gordons_export",9.99,FALSE,"D6-fill_8",NA,NA,"5de2a7ab625af00010e7e7ad"
"21388",5,0,0,"licor_43",11.99,TRUE,"D5-7",15250,NA,"5de2a7ab625af00010e7e7ad"
"21389",5,0,1,"southern_comfort",13.99,FALSE,"D5-7",NA,NA,"5de2a7ab625af00010e7e7ad"
"21390",5,0,2,"deluxe_irish_cream",6.99,FALSE,"D5-7",NA,NA,"5de2a7ab625af00010e7e7ad"
"21391",5,0,3,"heiko_blume_schokolade",6.99,FALSE,"D5-7",NA,NA,"5de2a7ab625af00010e7e7ad"
"21392",5,0,4,"amarula",9.99,FALSE,"D5-7",NA,NA,"5de2a7ab625af00010e7e7ad"
"21393",5,0,5,"armilar_amaretto",4.99,FALSE,"D5-7",NA,NA,"5de2a7ab625af00010e7e7ad"
"21394",5,0,6,"kronenhof_advocaat",3.99,FALSE,"D5-7",NA,NA,"5de2a7ab625af00010e7e7ad"
"21395",5,0,7,"baileys_700ml",9.99,FALSE,"D5-7",NA,11.99,"5de2a7ab625af00010e7e7ad"
"21396",5,0,8,"tartufolikor_blanco",5.99,FALSE,"D5-7",NA,NA,"5de2a7ab625af00010e7e7ad"
"21397",5,0,9,"high_mountains",3.99,FALSE,"D5-7",NA,NA,"5de2a7ab625af00010e7e7ad"
"21398",6,0,0,"gordons_export_large",11.99,FALSE,"D5-fill_6",NA,14.99,"5de2a7ab625af00010e7e7ad"
"21399",6,0,1,"blanchet_white",4.99,FALSE,"D5-fill_6",NA,NA,"5de2a7ab625af00010e7e7ad"
"21400",6,0,2,"smirnoff_de",10.99,TRUE,"D5-fill_6",4838,12.99,"5de2a7ab625af00010e7e7ad"
"21401",6,0,3,"malibu",10.99,FALSE,"D5-fill_6",NA,NA,"5de2a7ab625af00010e7e7ad"
"21402",6,0,4,"gordons_export",9.99,FALSE,"D5-fill_6",NA,NA,"5de2a7ab625af00010e7e7ad"
"21403",6,0,5,"lillet",10.99,FALSE,"D5-fill_6",NA,14.99,"5de2a7ab625af00010e7e7ad"
"21404",6,0,6,"blanchet_red",4.99,FALSE,"D5-fill_6",NA,11.99,"5de2a7ab625af00010e7e7ad"
"21405",6,0,7,"rotkappchen",3.99,FALSE,"D5-fill_6",NA,NA,"5de2a7ab625af00010e7e7ad"
"21406",7,0,0,"smirnoff_de",10.99,FALSE,"D6-fill_4",NA,NA,"5de2a7ab625af00010e7e7ad"
"21407",7,0,1,"malibu",10.99,FALSE,"D6-fill_4",NA,NA,"5de2a7ab625af00010e7e7ad"
"21408",7,0,2,"blanchet_white",4.99,TRUE,"D6-fill_4",4084,10.99,"5de2a7ab625af00010e7e7ad"
"21409",7,0,3,"gordons_export",9.99,FALSE,"D6-fill_4",NA,NA,"5de2a7ab625af00010e7e7ad"
"21410",7,0,4,"rotkappchen",3.99,FALSE,"D6-fill_4",NA,9.99,"5de2a7ab625af00010e7e7ad"
"21411",7,0,5,"lillet",10.99,FALSE,"D6-fill_4",NA,NA,"5de2a7ab625af00010e7e7ad"
"21412",7,0,6,"gordons_export_large",11.99,FALSE,"D6-fill_4",NA,NA,"5de2a7ab625af00010e7e7ad"
"21413",7,0,7,"blanchet_red",4.99,FALSE,"D6-fill_4",NA,10.99,"5de2a7ab625af00010e7e7ad"
"21414",8,0,0,"rotkappchen",3.99,FALSE,"D6-fill_7",NA,NA,"5de2a7ab625af00010e7e7ad"
"21415",8,0,1,"blanchet_white",4.99,FALSE,"D6-fill_7",NA,7.99,"5de2a7ab625af00010e7e7ad"
"21416",8,0,2,"lillet",10.99,FALSE,"D6-fill_7",NA,18.99,"5de2a7ab625af00010e7e7ad"
"21417",8,0,3,"gordons_export_large",11.99,FALSE,"D6-fill_7",NA,NA,"5de2a7ab625af00010e7e7ad"
"21418",8,0,4,"blanchet_red",4.99,FALSE,"D6-fill_7",NA,NA,"5de2a7ab625af00010e7e7ad"
"21419",8,0,5,"smirnoff_de",10.99,FALSE,"D6-fill_7",NA,NA,"5de2a7ab625af00010e7e7ad"
"21420",8,0,6,"gordons_export",9.99,FALSE,"D6-fill_7",NA,NA,"5de2a7ab625af00010e7e7ad"
"21421",8,0,7,"malibu",10.99,TRUE,"D6-fill_7",8671,16.99,"5de2a7ab625af00010e7e7ad"
"21422",9,0,0,"baileys_700ml",9.99,FALSE,"D6-4",NA,12.99,"5de2a7ab625af00010e7e7ad"
"21423",9,0,1,"tartufolikor_blanco",5.99,FALSE,"D6-4",NA,NA,"5de2a7ab625af00010e7e7ad"
"21424",9,0,2,"heiko_blume_schokolade",6.99,FALSE,"D6-4",NA,NA,"5de2a7ab625af00010e7e7ad"
"21425",9,0,3,"amarula",9.99,FALSE,"D6-4",NA,NA,"5de2a7ab625af00010e7e7ad"
"21426",9,0,4,"southern_comfort",13.99,FALSE,"D6-4",NA,NA,"5de2a7ab625af00010e7e7ad"
"21427",9,0,5,"high_mountains",3.99,FALSE,"D6-4",NA,NA,"5de2a7ab625af00010e7e7ad"
"21428",9,0,6,"baileys_500ml",7.99,TRUE,"D6-4",8676,NA,"5de2a7ab625af00010e7e7ad"
"21429",9,0,7,"kronenhof_advocaat",3.99,FALSE,"D6-4",NA,NA,"5de2a7ab625af00010e7e7ad"
"21430",9,0,8,"deluxe_irish_cream",6.99,FALSE,"D6-4",NA,NA,"5de2a7ab625af00010e7e7ad"
"21431",9,0,9,"armilar_amaretto",4.99,FALSE,"D6-4",NA,NA,"5de2a7ab625af00010e7e7ad"
"21432",9,0,10,"licor_43",11.99,FALSE,"D6-4",NA,NA,"5de2a7ab625af00010e7e7ad"
"22605",0,0,0,"tartufolikor_blanco",5.99,FALSE,"D6-2",NA,NA,"5de2d22c625af00010e7f391"
"22606",0,0,1,"baileys_700ml",11.99,FALSE,"D6-2",NA,12.99,"5de2d22c625af00010e7f391"
"22607",0,0,2,"high_mountains",3.99,FALSE,"D6-2",NA,NA,"5de2d22c625af00010e7f391"
"22608",0,0,3,"armilar_amaretto",4.99,FALSE,"D6-2",NA,NA,"5de2d22c625af00010e7f391"
"22609",0,0,4,"amarula",9.99,FALSE,"D6-2",NA,NA,"5de2d22c625af00010e7f391"
"22610",0,0,5,"deluxe_irish_cream",6.99,FALSE,"D6-2",NA,NA,"5de2d22c625af00010e7f391"
"22611",0,0,6,"baileys_500ml",7.99,TRUE,"D6-2",2202,NA,"5de2d22c625af00010e7f391"
"22612",0,0,7,"kronenhof_advocaat",3.99,FALSE,"D6-2",NA,NA,"5de2d22c625af00010e7f391"
"22613",0,0,8,"heiko_blume_schokolade",6.99,FALSE,"D6-2",NA,NA,"5de2d22c625af00010e7f391"
"22614",0,0,9,"licor_43",11.99,FALSE,"D6-2",NA,NA,"5de2d22c625af00010e7f391"
"22615",0,0,10,"southern_comfort",13.99,FALSE,"D6-2",NA,NA,"5de2d22c625af00010e7f391"
"22616",1,0,0,"rotkappchen",3.99,TRUE,"D5-fill_3",5688,9.99,"5de2d22c625af00010e7f391"
"22617",1,0,1,"gordons_export_large",11.99,FALSE,"D5-fill_3",NA,NA,"5de2d22c625af00010e7f391"
"22618",1,0,2,"blanchet_red",4.99,FALSE,"D5-fill_3",NA,NA,"5de2d22c625af00010e7f391"
"22619",1,0,3,"blanchet_white",4.99,FALSE,"D5-fill_3",NA,NA,"5de2d22c625af00010e7f391"
"22620",1,0,4,"malibu",10.99,FALSE,"D5-fill_3",NA,NA,"5de2d22c625af00010e7f391"
"22621",1,0,5,"lillet",10.99,FALSE,"D5-fill_3",NA,15.99,"5de2d22c625af00010e7f391"
"22622",1,0,6,"smirnoff_de",10.99,FALSE,"D5-fill_3",NA,NA,"5de2d22c625af00010e7f391"
"22623",1,0,7,"gordons_export",9.99,FALSE,"D5-fill_3",NA,11.99,"5de2d22c625af00010e7f391"
"22624",2,0,0,"blanchet_red",4.99,FALSE,"D6-fill_4",NA,10.99,"5de2d22c625af00010e7f391"
"22625",2,0,1,"gordons_export",9.99,FALSE,"D6-fill_4",NA,NA,"5de2d22c625af00010e7f391"
"22626",2,0,2,"rotkappchen",3.99,TRUE,"D6-fill_4",4314,9.99,"5de2d22c625af00010e7f391"
"22627",2,0,3,"blanchet_white",4.99,FALSE,"D6-fill_4",NA,10.99,"5de2d22c625af00010e7f391"
"22628",2,0,4,"malibu",10.99,FALSE,"D6-fill_4",NA,NA,"5de2d22c625af00010e7f391"
"22629",2,0,5,"smirnoff_de",10.99,FALSE,"D6-fill_4",NA,NA,"5de2d22c625af00010e7f391"
"22630",2,0,6,"gordons_export_large",11.99,FALSE,"D6-fill_4",NA,NA,"5de2d22c625af00010e7f391"
"22631",2,0,7,"lillet",10.99,FALSE,"D6-fill_4",NA,NA,"5de2d22c625af00010e7f391"
"22632",3,0,0,"kronenhof_advocaat",3.99,FALSE,"D5-6",NA,NA,"5de2d22c625af00010e7f391"
"22633",3,0,1,"licor_43",11.99,FALSE,"D5-6",NA,NA,"5de2d22c625af00010e7f391"
"22634",3,0,2,"armilar_amaretto",4.99,FALSE,"D5-6",NA,NA,"5de2d22c625af00010e7f391"
"22635",3,0,3,"tartufolikor_blanco",5.99,FALSE,"D5-6",NA,NA,"5de2d22c625af00010e7f391"
"22636",3,0,4,"baileys_700ml",10.99,TRUE,"D5-6",1304,11.99,"5de2d22c625af00010e7f391"
"22637",3,0,5,"southern_comfort",13.99,FALSE,"D5-6",NA,NA,"5de2d22c625af00010e7f391"
"22638",3,0,6,"high_mountains",3.99,FALSE,"D5-6",NA,NA,"5de2d22c625af00010e7f391"
"22639",3,0,7,"amarula",9.99,FALSE,"D5-6",NA,NA,"5de2d22c625af00010e7f391"
"22640",3,0,8,"heiko_blume_schokolade",6.99,FALSE,"D5-6",NA,NA,"5de2d22c625af00010e7f391"
"22641",3,0,9,"deluxe_irish_cream",6.99,FALSE,"D5-6",NA,NA,"5de2d22c625af00010e7f391"
"22642",4,0,0,"gordons_export_large",11.99,FALSE,"D5-fill_2",NA,NA,"5de2d22c625af00010e7f391"
"22643",4,0,1,"gordons_export",9.99,FALSE,"D5-fill_2",NA,13.99,"5de2d22c625af00010e7f391"
"22644",4,0,2,"blanchet_red",4.99,FALSE,"D5-fill_2",NA,NA,"5de2d22c625af00010e7f391"
"22645",4,0,3,"lillet",10.99,TRUE,"D5-fill_2",4934,12.99,"5de2d22c625af00010e7f391"
"22646",4,0,4,"malibu",10.99,FALSE,"D5-fill_2",NA,18.99,"5de2d22c625af00010e7f391"
"22647",4,0,5,"rotkappchen",3.99,FALSE,"D5-fill_2",NA,NA,"5de2d22c625af00010e7f391"
"22648",4,0,6,"smirnoff_de",10.99,FALSE,"D5-fill_2",NA,NA,"5de2d22c625af00010e7f391"
"22649",4,0,7,"blanchet_white",4.99,FALSE,"D5-fill_2",NA,11.99,"5de2d22c625af00010e7f391"
"22650",5,0,0,"armilar_amaretto",4.99,FALSE,"D5-8",NA,NA,"5de2d22c625af00010e7f391"
"22651",5,0,1,"amarula",9.99,FALSE,"D5-8",NA,NA,"5de2d22c625af00010e7f391"
"22652",5,0,2,"heiko_blume_schokolade",6.99,FALSE,"D5-8",NA,NA,"5de2d22c625af00010e7f391"
"22653",5,0,3,"baileys_700ml",8.99,FALSE,"D5-8",NA,11.99,"5de2d22c625af00010e7f391"
"22654",5,0,4,"kronenhof_advocaat",3.99,FALSE,"D5-8",NA,NA,"5de2d22c625af00010e7f391"
"22655",5,0,5,"tartufolikor_blanco",5.99,TRUE,"D5-8",1334,NA,"5de2d22c625af00010e7f391"
"22656",5,0,6,"deluxe_irish_cream",6.99,FALSE,"D5-8",NA,NA,"5de2d22c625af00010e7f391"
"22657",5,0,7,"high_mountains",3.99,FALSE,"D5-8",NA,NA,"5de2d22c625af00010e7f391"
"22658",5,0,8,"licor_43",11.99,FALSE,"D5-8",NA,NA,"5de2d22c625af00010e7f391"
"22659",5,0,9,"southern_comfort",13.99,FALSE,"D5-8",NA,NA,"5de2d22c625af00010e7f391"
"22660",6,0,0,"heiko_blume_schokolade",6.99,FALSE,"D5-1",NA,NA,"5de2d22c625af00010e7f391"
"22661",6,0,1,"baileys_700ml",10.99,FALSE,"D5-1",NA,13.99,"5de2d22c625af00010e7f391"
"22662",6,0,2,"amarula",9.99,TRUE,"D5-1",3290,NA,"5de2d22c625af00010e7f391"
"22663",6,0,3,"deluxe_irish_cream",6.99,FALSE,"D5-1",NA,NA,"5de2d22c625af00010e7f391"
"22664",6,0,4,"kronenhof_advocaat",3.99,FALSE,"D5-1",NA,NA,"5de2d22c625af00010e7f391"
"22665",6,0,5,"tartufolikor_blanco",5.99,FALSE,"D5-1",NA,NA,"5de2d22c625af00010e7f391"
"22666",6,0,6,"licor_43",11.99,FALSE,"D5-1",NA,NA,"5de2d22c625af00010e7f391"
"22667",6,0,7,"high_mountains",3.99,FALSE,"D5-1",NA,NA,"5de2d22c625af00010e7f391"
"22668",6,0,8,"southern_comfort",13.99,FALSE,"D5-1",NA,NA,"5de2d22c625af00010e7f391"
"22669",6,0,9,"armilar_amaretto",4.99,FALSE,"D5-1",NA,NA,"5de2d22c625af00010e7f391"
"22670",7,0,0,"malibu",10.99,FALSE,"D6-fill_6",NA,NA,"5de2d22c625af00010e7f391"
"22671",7,0,1,"blanchet_white",4.99,FALSE,"D6-fill_6",NA,NA,"5de2d22c625af00010e7f391"
"22672",7,0,2,"rotkappchen",3.99,TRUE,"D6-fill_6",2771,NA,"5de2d22c625af00010e7f391"
"22673",7,0,3,"smirnoff_de",10.99,FALSE,"D6-fill_6",NA,NA,"5de2d22c625af00010e7f391"
"22674",7,0,4,"lillet",10.99,FALSE,"D6-fill_6",NA,NA,"5de2d22c625af00010e7f391"
"22675",7,0,5,"gordons_export",9.99,FALSE,"D6-fill_6",NA,NA,"5de2d22c625af00010e7f391"
"22676",7,0,6,"gordons_export_large",11.99,FALSE,"D6-fill_6",NA,NA,"5de2d22c625af00010e7f391"
"22677",7,0,7,"blanchet_red",4.99,FALSE,"D6-fill_6",NA,7.99,"5de2d22c625af00010e7f391"
"22678",8,0,0,"rotkappchen",3.99,FALSE,"D6-fill_1",NA,NA,"5de2d22c625af00010e7f391"
"22679",8,0,1,"lillet",10.99,FALSE,"D6-fill_1",NA,NA,"5de2d22c625af00010e7f391"
"22680",8,0,2,"blanchet_white",4.99,FALSE,"D6-fill_1",NA,NA,"5de2d22c625af00010e7f391"
"22681",8,0,3,"gordons_export",9.99,FALSE,"D6-fill_1",NA,16.99,"5de2d22c625af00010e7f391"
"22682",8,0,4,"smirnoff_de",10.99,FALSE,"D6-fill_1",NA,17.99,"5de2d22c625af00010e7f391"
"22683",8,0,5,"gordons_export_large",11.99,FALSE,"D6-fill_1",NA,NA,"5de2d22c625af00010e7f391"
"22684",8,0,6,"malibu",10.99,TRUE,"D6-fill_1",1911,NA,"5de2d22c625af00010e7f391"
"22685",8,0,7,"blanchet_red",4.99,FALSE,"D6-fill_1",NA,NA,"5de2d22c625af00010e7f391"
"22686",9,0,0,"kronenhof_advocaat",3.99,FALSE,"D6-8",NA,NA,"5de2d22c625af00010e7f391"
"22687",9,0,1,"baileys_500ml",7.99,FALSE,"D6-8",NA,NA,"5de2d22c625af00010e7f391"
"22688",9,0,2,"licor_43",11.99,FALSE,"D6-8",NA,NA,"5de2d22c625af00010e7f391"
"22689",9,0,3,"high_mountains",3.99,FALSE,"D6-8",NA,NA,"5de2d22c625af00010e7f391"
"22690",9,0,4,"deluxe_irish_cream",6.99,FALSE,"D6-8",NA,NA,"5de2d22c625af00010e7f391"
"22691",9,0,5,"armilar_amaretto",4.99,FALSE,"D6-8",NA,NA,"5de2d22c625af00010e7f391"
"22692",9,0,6,"amarula",9.99,FALSE,"D6-8",NA,NA,"5de2d22c625af00010e7f391"
"22693",9,0,7,"baileys_700ml",8.99,TRUE,"D6-8",1840,11.99,"5de2d22c625af00010e7f391"
"22694",9,0,8,"southern_comfort",13.99,FALSE,"D6-8",NA,NA,"5de2d22c625af00010e7f391"
"22695",9,0,9,"tartufolikor_blanco",5.99,FALSE,"D6-8",NA,NA,"5de2d22c625af00010e7f391"
"22696",9,0,10,"heiko_blume_schokolade",6.99,FALSE,"D6-8",NA,NA,"5de2d22c625af00010e7f391"
"23268",0,0,0,"blanchet_white",4.99,FALSE,"D6-fill_4",NA,10.99,"5de2fae2d521a00010b4f824"
"23269",0,0,1,"blanchet_red",4.99,FALSE,"D6-fill_4",NA,10.99,"5de2fae2d521a00010b4f824"
"23270",0,0,2,"malibu",10.99,FALSE,"D6-fill_4",NA,NA,"5de2fae2d521a00010b4f824"
"23271",0,0,3,"gordons_export_large",11.99,FALSE,"D6-fill_4",NA,NA,"5de2fae2d521a00010b4f824"
"23272",0,0,4,"lillet",10.99,FALSE,"D6-fill_4",NA,NA,"5de2fae2d521a00010b4f824"
"23273",0,0,5,"gordons_export",9.99,FALSE,"D6-fill_4",NA,NA,"5de2fae2d521a00010b4f824"
"23274",0,0,6,"rotkappchen",3.99,FALSE,"D6-fill_4",NA,9.99,"5de2fae2d521a00010b4f824"
"23275",0,0,7,"smirnoff_de",10.99,TRUE,"D6-fill_4",17359,NA,"5de2fae2d521a00010b4f824"
"23276",1,0,0,"lillet",10.99,FALSE,"D6-fill_7",NA,18.99,"5de2fae2d521a00010b4f824"
"23277",1,0,1,"smirnoff_de",10.99,FALSE,"D6-fill_7",NA,NA,"5de2fae2d521a00010b4f824"
"23278",1,0,2,"malibu",10.99,FALSE,"D6-fill_7",NA,16.99,"5de2fae2d521a00010b4f824"
"23279",1,0,3,"gordons_export_large",11.99,FALSE,"D6-fill_7",NA,NA,"5de2fae2d521a00010b4f824"
"23280",1,0,4,"rotkappchen",3.99,TRUE,"D6-fill_7",1864,NA,"5de2fae2d521a00010b4f824"
"23281",1,0,5,"blanchet_white",4.99,FALSE,"D6-fill_7",NA,7.99,"5de2fae2d521a00010b4f824"
"23282",1,0,6,"gordons_export",9.99,FALSE,"D6-fill_7",NA,NA,"5de2fae2d521a00010b4f824"
"23283",1,0,7,"blanchet_red",4.99,FALSE,"D6-fill_7",NA,NA,"5de2fae2d521a00010b4f824"
"23284",2,0,0,"baileys_500ml",7.99,FALSE,"D6-1",NA,NA,"5de2fae2d521a00010b4f824"
"23285",2,0,1,"kronenhof_advocaat",3.99,FALSE,"D6-1",NA,NA,"5de2fae2d521a00010b4f824"
"23286",2,0,2,"southern_comfort",13.99,FALSE,"D6-1",NA,NA,"5de2fae2d521a00010b4f824"
"23287",2,0,3,"tartufolikor_blanco",5.99,FALSE,"D6-1",NA,NA,"5de2fae2d521a00010b4f824"
"23288",2,0,4,"deluxe_irish_cream",6.99,FALSE,"D6-1",NA,NA,"5de2fae2d521a00010b4f824"
"23289",2,0,5,"licor_43",11.99,FALSE,"D6-1",NA,NA,"5de2fae2d521a00010b4f824"
"23290",2,0,6,"baileys_700ml",10.99,TRUE,"D6-1",1984,13.99,"5de2fae2d521a00010b4f824"
"23291",2,0,7,"armilar_amaretto",4.99,FALSE,"D6-1",NA,NA,"5de2fae2d521a00010b4f824"
"23292",2,0,8,"heiko_blume_schokolade",6.99,FALSE,"D6-1",NA,NA,"5de2fae2d521a00010b4f824"
"23293",2,0,9,"amarula",9.99,FALSE,"D6-1",NA,NA,"5de2fae2d521a00010b4f824"
"23294",2,0,10,"high_mountains",3.99,FALSE,"D6-1",NA,NA,"5de2fae2d521a00010b4f824"
"23295",3,0,0,"baileys_500ml",7.99,FALSE,"D6-4",NA,NA,"5de2fae2d521a00010b4f824"
"23296",3,0,1,"kronenhof_advocaat",3.99,FALSE,"D6-4",NA,NA,"5de2fae2d521a00010b4f824"
"23297",3,0,2,"high_mountains",3.99,FALSE,"D6-4",NA,NA,"5de2fae2d521a00010b4f824"
"23298",3,0,3,"amarula",9.99,FALSE,"D6-4",NA,NA,"5de2fae2d521a00010b4f824"
"23299",3,0,4,"tartufolikor_blanco",5.99,FALSE,"D6-4",NA,NA,"5de2fae2d521a00010b4f824"
"23300",3,0,5,"armilar_amaretto",4.99,TRUE,"D6-4",2570,NA,"5de2fae2d521a00010b4f824"
"23301",3,0,6,"deluxe_irish_cream",6.99,FALSE,"D6-4",NA,NA,"5de2fae2d521a00010b4f824"
"23302",3,0,7,"southern_comfort",13.99,FALSE,"D6-4",NA,NA,"5de2fae2d521a00010b4f824"
"23303",3,0,8,"heiko_blume_schokolade",6.99,FALSE,"D6-4",NA,NA,"5de2fae2d521a00010b4f824"
"23304",3,0,9,"licor_43",11.99,FALSE,"D6-4",NA,NA,"5de2fae2d521a00010b4f824"
"23305",3,0,10,"baileys_700ml",9.99,FALSE,"D6-4",NA,12.99,"5de2fae2d521a00010b4f824"
"23306",4,0,0,"kronenhof_advocaat",3.99,FALSE,"D5-1",NA,NA,"5de2fae2d521a00010b4f824"
"23307",4,0,1,"heiko_blume_schokolade",6.99,FALSE,"D5-1",NA,NA,"5de2fae2d521a00010b4f824"
"23308",4,0,2,"armilar_amaretto",4.99,FALSE,"D5-1",NA,NA,"5de2fae2d521a00010b4f824"
"23309",4,0,3,"high_mountains",3.99,FALSE,"D5-1",NA,NA,"5de2fae2d521a00010b4f824"
"23310",4,0,4,"deluxe_irish_cream",6.99,FALSE,"D5-1",NA,NA,"5de2fae2d521a00010b4f824"
"23311",4,0,5,"amarula",9.99,TRUE,"D5-1",1586,NA,"5de2fae2d521a00010b4f824"
"23312",4,0,6,"tartufolikor_blanco",5.99,FALSE,"D5-1",NA,NA,"5de2fae2d521a00010b4f824"
"23313",4,0,7,"southern_comfort",13.99,FALSE,"D5-1",NA,NA,"5de2fae2d521a00010b4f824"
"23314",4,0,8,"licor_43",11.99,FALSE,"D5-1",NA,NA,"5de2fae2d521a00010b4f824"
"23315",4,0,9,"baileys_700ml",10.99,FALSE,"D5-1",NA,13.99,"5de2fae2d521a00010b4f824"
"23316",5,0,0,"lillet",10.99,FALSE,"D5-fill_5",NA,NA,"5de2fae2d521a00010b4f824"
"23317",5,0,1,"gordons_export_large",11.99,FALSE,"D5-fill_5",NA,13.99,"5de2fae2d521a00010b4f824"
"23318",5,0,2,"smirnoff_de",10.99,FALSE,"D5-fill_5",NA,NA,"5de2fae2d521a00010b4f824"
"23319",5,0,3,"rotkappchen",3.99,FALSE,"D5-fill_5",NA,NA,"5de2fae2d521a00010b4f824"
"23320",5,0,4,"blanchet_red",4.99,FALSE,"D5-fill_5",NA,NA,"5de2fae2d521a00010b4f824"
"23321",5,0,5,"blanchet_white",4.99,FALSE,"D5-fill_5",NA,12.99,"5de2fae2d521a00010b4f824"
"23322",5,0,6,"malibu",10.99,FALSE,"D5-fill_5",NA,NA,"5de2fae2d521a00010b4f824"
"23323",5,0,7,"gordons_export",9.99,TRUE,"D5-fill_5",1557,NA,"5de2fae2d521a00010b4f824"
"23324",6,0,0,"southern_comfort",13.99,FALSE,"D6-8",NA,NA,"5de2fae2d521a00010b4f824"
"23325",6,0,1,"deluxe_irish_cream",6.99,FALSE,"D6-8",NA,NA,"5de2fae2d521a00010b4f824"
"23326",6,0,2,"tartufolikor_blanco",5.99,FALSE,"D6-8",NA,NA,"5de2fae2d521a00010b4f824"
"23327",6,0,3,"heiko_blume_schokolade",6.99,FALSE,"D6-8",NA,NA,"5de2fae2d521a00010b4f824"
"23328",6,0,4,"licor_43",11.99,TRUE,"D6-8",1936,NA,"5de2fae2d521a00010b4f824"
"23329",6,0,5,"armilar_amaretto",4.99,FALSE,"D6-8",NA,NA,"5de2fae2d521a00010b4f824"
"23330",6,0,6,"baileys_500ml",7.99,FALSE,"D6-8",NA,NA,"5de2fae2d521a00010b4f824"
"23331",6,0,7,"baileys_700ml",8.99,FALSE,"D6-8",NA,11.99,"5de2fae2d521a00010b4f824"
"23332",6,0,8,"high_mountains",3.99,FALSE,"D6-8",NA,NA,"5de2fae2d521a00010b4f824"
"23333",6,0,9,"amarula",9.99,FALSE,"D6-8",NA,NA,"5de2fae2d521a00010b4f824"
"23334",6,0,10,"kronenhof_advocaat",3.99,FALSE,"D6-8",NA,NA,"5de2fae2d521a00010b4f824"
"23335",7,0,0,"blanchet_white",4.99,FALSE,"D5-fill_8",NA,NA,"5de2fae2d521a00010b4f824"
"23336",7,0,1,"rotkappchen",3.99,FALSE,"D5-fill_8",NA,6.99,"5de2fae2d521a00010b4f824"
"23337",7,0,2,"blanchet_red",4.99,FALSE,"D5-fill_8",NA,NA,"5de2fae2d521a00010b4f824"
"23338",7,0,3,"gordons_export",9.99,FALSE,"D5-fill_8",NA,NA,"5de2fae2d521a00010b4f824"
"23339",7,0,4,"gordons_export_large",11.99,FALSE,"D5-fill_8",NA,16.99,"5de2fae2d521a00010b4f824"
"23340",7,0,5,"smirnoff_de",10.99,TRUE,"D5-fill_8",1836,NA,"5de2fae2d521a00010b4f824"
"23341",7,0,6,"lillet",10.99,FALSE,"D5-fill_8",NA,NA,"5de2fae2d521a00010b4f824"
"23342",7,0,7,"malibu",10.99,FALSE,"D5-fill_8",NA,17.99,"5de2fae2d521a00010b4f824"
"23343",8,0,0,"baileys_500ml",7.99,FALSE,"D6-7",NA,NA,"5de2fae2d521a00010b4f824"
"23344",8,0,1,"armilar_amaretto",4.99,FALSE,"D6-7",NA,NA,"5de2fae2d521a00010b4f824"
"23345",8,0,2,"heiko_blume_schokolade",6.99,FALSE,"D6-7",NA,NA,"5de2fae2d521a00010b4f824"
"23346",8,0,3,"amarula",9.99,FALSE,"D6-7",NA,NA,"5de2fae2d521a00010b4f824"
"23347",8,0,4,"baileys_700ml",9.99,FALSE,"D6-7",NA,11.99,"5de2fae2d521a00010b4f824"
"23348",8,0,5,"kronenhof_advocaat",3.99,FALSE,"D6-7",NA,NA,"5de2fae2d521a00010b4f824"
"23349",8,0,6,"tartufolikor_blanco",5.99,TRUE,"D6-7",1195,NA,"5de2fae2d521a00010b4f824"
"23350",8,0,7,"high_mountains",3.99,FALSE,"D6-7",NA,NA,"5de2fae2d521a00010b4f824"
"23351",8,0,8,"licor_43",11.99,FALSE,"D6-7",NA,NA,"5de2fae2d521a00010b4f824"
"23352",8,0,9,"southern_comfort",13.99,FALSE,"D6-7",NA,NA,"5de2fae2d521a00010b4f824"
"23353",8,0,10,"deluxe_irish_cream",6.99,FALSE,"D6-7",NA,NA,"5de2fae2d521a00010b4f824"
"23354",9,0,0,"baileys_500ml",7.99,FALSE,"D6-2",NA,NA,"5de2fae2d521a00010b4f824"
"23355",9,0,1,"tartufolikor_blanco",5.99,FALSE,"D6-2",NA,NA,"5de2fae2d521a00010b4f824"
"23356",9,0,2,"deluxe_irish_cream",6.99,FALSE,"D6-2",NA,NA,"5de2fae2d521a00010b4f824"
"23357",9,0,3,"baileys_700ml",11.99,FALSE,"D6-2",NA,12.99,"5de2fae2d521a00010b4f824"
"23358",9,0,4,"armilar_amaretto",4.99,FALSE,"D6-2",NA,NA,"5de2fae2d521a00010b4f824"
"23359",9,0,5,"heiko_blume_schokolade",6.99,FALSE,"D6-2",NA,NA,"5de2fae2d521a00010b4f824"
"23360",9,0,6,"licor_43",11.99,FALSE,"D6-2",NA,NA,"5de2fae2d521a00010b4f824"
"23361",9,0,7,"kronenhof_advocaat",3.99,TRUE,"D6-2",1006,NA,"5de2fae2d521a00010b4f824"
"23362",9,0,8,"southern_comfort",13.99,FALSE,"D6-2",NA,NA,"5de2fae2d521a00010b4f824"
"23363",9,0,9,"high_mountains",3.99,FALSE,"D6-2",NA,NA,"5de2fae2d521a00010b4f824"
"23364",9,0,10,"amarula",9.99,FALSE,"D6-2",NA,NA,"5de2fae2d521a00010b4f824"
"24334",0,0,0,"tartufolikor_blanco",5.99,FALSE,"D5-1",NA,NA,"5de31945d521a00010b4fdf3"
"24335",0,0,1,"armilar_amaretto",4.99,FALSE,"D5-1",NA,NA,"5de31945d521a00010b4fdf3"
"24336",0,0,2,"deluxe_irish_cream",6.99,FALSE,"D5-1",NA,NA,"5de31945d521a00010b4fdf3"
"24337",0,0,3,"baileys_700ml",10.99,TRUE,"D5-1",4171,13.99,"5de31945d521a00010b4fdf3"
"24338",0,0,4,"kronenhof_advocaat",3.99,FALSE,"D5-1",NA,NA,"5de31945d521a00010b4fdf3"
"24339",0,0,5,"heiko_blume_schokolade",6.99,FALSE,"D5-1",NA,NA,"5de31945d521a00010b4fdf3"
"24340",0,0,6,"southern_comfort",13.99,FALSE,"D5-1",NA,NA,"5de31945d521a00010b4fdf3"
"24341",0,0,7,"amarula",9.99,FALSE,"D5-1",NA,NA,"5de31945d521a00010b4fdf3"
"24342",0,0,8,"high_mountains",3.99,FALSE,"D5-1",NA,NA,"5de31945d521a00010b4fdf3"
"24343",0,0,9,"licor_43",11.99,FALSE,"D5-1",NA,NA,"5de31945d521a00010b4fdf3"
"24344",1,0,0,"baileys_500ml",7.99,FALSE,"D6-7",NA,NA,"5de31945d521a00010b4fdf3"
"24345",1,0,1,"deluxe_irish_cream",6.99,FALSE,"D6-7",NA,NA,"5de31945d521a00010b4fdf3"
"24346",1,0,2,"baileys_700ml",9.99,FALSE,"D6-7",NA,11.99,"5de31945d521a00010b4fdf3"
"24347",1,0,3,"heiko_blume_schokolade",6.99,FALSE,"D6-7",NA,NA,"5de31945d521a00010b4fdf3"
"24348",1,0,4,"kronenhof_advocaat",3.99,FALSE,"D6-7",NA,NA,"5de31945d521a00010b4fdf3"
"24349",1,0,5,"licor_43",11.99,TRUE,"D6-7",4422,NA,"5de31945d521a00010b4fdf3"
"24350",1,0,6,"armilar_amaretto",4.99,FALSE,"D6-7",NA,NA,"5de31945d521a00010b4fdf3"
"24351",1,0,7,"amarula",9.99,FALSE,"D6-7",NA,NA,"5de31945d521a00010b4fdf3"
"24352",1,0,8,"high_mountains",3.99,FALSE,"D6-7",NA,NA,"5de31945d521a00010b4fdf3"
"24353",1,0,9,"tartufolikor_blanco",5.99,FALSE,"D6-7",NA,NA,"5de31945d521a00010b4fdf3"
"24354",1,0,10,"southern_comfort",13.99,FALSE,"D6-7",NA,NA,"5de31945d521a00010b4fdf3"
"24355",2,0,0,"blanchet_white",4.99,FALSE,"D6-fill_6",NA,NA,"5de31945d521a00010b4fdf3"
"24356",2,0,1,"smirnoff_de",10.99,FALSE,"D6-fill_6",NA,NA,"5de31945d521a00010b4fdf3"
"24357",2,0,2,"lillet",10.99,FALSE,"D6-fill_6",NA,NA,"5de31945d521a00010b4fdf3"
"24358",2,0,3,"malibu",10.99,FALSE,"D6-fill_6",NA,NA,"5de31945d521a00010b4fdf3"
"24359",2,0,4,"gordons_export_large",11.99,TRUE,"D6-fill_6",1359,NA,"5de31945d521a00010b4fdf3"
"24360",2,0,5,"gordons_export",9.99,FALSE,"D6-fill_6",NA,NA,"5de31945d521a00010b4fdf3"
"24361",2,0,6,"rotkappchen",3.99,FALSE,"D6-fill_6",NA,NA,"5de31945d521a00010b4fdf3"
"24362",2,0,7,"blanchet_red",4.99,FALSE,"D6-fill_6",NA,7.99,"5de31945d521a00010b4fdf3"
"24363",3,0,0,"tartufolikor_blanco",5.99,FALSE,"D6-8",NA,NA,"5de31945d521a00010b4fdf3"
"24364",3,0,1,"armilar_amaretto",4.99,FALSE,"D6-8",NA,NA,"5de31945d521a00010b4fdf3"
"24365",3,0,2,"baileys_700ml",8.99,FALSE,"D6-8",NA,11.99,"5de31945d521a00010b4fdf3"
"24366",3,0,3,"deluxe_irish_cream",6.99,FALSE,"D6-8",NA,NA,"5de31945d521a00010b4fdf3"
"24367",3,0,4,"heiko_blume_schokolade",6.99,FALSE,"D6-8",NA,NA,"5de31945d521a00010b4fdf3"
"24368",3,0,5,"high_mountains",3.99,FALSE,"D6-8",NA,NA,"5de31945d521a00010b4fdf3"
"24369",3,0,6,"licor_43",11.99,TRUE,"D6-8",1094,NA,"5de31945d521a00010b4fdf3"
"24370",3,0,7,"kronenhof_advocaat",3.99,FALSE,"D6-8",NA,NA,"5de31945d521a00010b4fdf3"
"24371",3,0,8,"baileys_500ml",7.99,FALSE,"D6-8",NA,NA,"5de31945d521a00010b4fdf3"
"24372",3,0,9,"southern_comfort",13.99,FALSE,"D6-8",NA,NA,"5de31945d521a00010b4fdf3"
"24373",3,0,10,"amarula",9.99,FALSE,"D6-8",NA,NA,"5de31945d521a00010b4fdf3"
"24374",4,0,0,"licor_43",11.99,FALSE,"D5-4",NA,NA,"5de31945d521a00010b4fdf3"
"24375",4,0,1,"armilar_amaretto",4.99,FALSE,"D5-4",NA,NA,"5de31945d521a00010b4fdf3"
"24376",4,0,2,"amarula",9.99,FALSE,"D5-4",NA,NA,"5de31945d521a00010b4fdf3"
"24377",4,0,3,"tartufolikor_blanco",5.99,FALSE,"D5-4",NA,NA,"5de31945d521a00010b4fdf3"
"24378",4,0,4,"kronenhof_advocaat",3.99,FALSE,"D5-4",NA,NA,"5de31945d521a00010b4fdf3"
"24379",4,0,5,"heiko_blume_schokolade",6.99,FALSE,"D5-4",NA,NA,"5de31945d521a00010b4fdf3"
"24380",4,0,6,"deluxe_irish_cream",6.99,FALSE,"D5-4",NA,NA,"5de31945d521a00010b4fdf3"
"24381",4,0,7,"southern_comfort",13.99,TRUE,"D5-4",2313,NA,"5de31945d521a00010b4fdf3"
"24382",4,0,8,"baileys_700ml",9.99,FALSE,"D5-4",NA,12.99,"5de31945d521a00010b4fdf3"
"24383",4,0,9,"high_mountains",3.99,FALSE,"D5-4",NA,NA,"5de31945d521a00010b4fdf3"
"24384",5,0,0,"deluxe_irish_cream",6.99,FALSE,"D5-7",NA,NA,"5de31945d521a00010b4fdf3"
"24385",5,0,1,"licor_43",11.99,FALSE,"D5-7",NA,NA,"5de31945d521a00010b4fdf3"
"24386",5,0,2,"armilar_amaretto",4.99,FALSE,"D5-7",NA,NA,"5de31945d521a00010b4fdf3"
"24387",5,0,3,"southern_comfort",13.99,FALSE,"D5-7",NA,NA,"5de31945d521a00010b4fdf3"
"24388",5,0,4,"tartufolikor_blanco",5.99,FALSE,"D5-7",NA,NA,"5de31945d521a00010b4fdf3"
"24389",5,0,5,"high_mountains",3.99,TRUE,"D5-7",1015,NA,"5de31945d521a00010b4fdf3"
"24390",5,0,6,"heiko_blume_schokolade",6.99,FALSE,"D5-7",NA,NA,"5de31945d521a00010b4fdf3"
"24391",5,0,7,"amarula",9.99,FALSE,"D5-7",NA,NA,"5de31945d521a00010b4fdf3"
"24392",5,0,8,"baileys_700ml",9.99,FALSE,"D5-7",NA,11.99,"5de31945d521a00010b4fdf3"
"24393",5,0,9,"kronenhof_advocaat",3.99,FALSE,"D5-7",NA,NA,"5de31945d521a00010b4fdf3"
"24394",6,0,0,"southern_comfort",13.99,FALSE,"D6-1",NA,NA,"5de31945d521a00010b4fdf3"
"24395",6,0,1,"tartufolikor_blanco",5.99,FALSE,"D6-1",NA,NA,"5de31945d521a00010b4fdf3"
"24396",6,0,2,"licor_43",11.99,TRUE,"D6-1",1344,NA,"5de31945d521a00010b4fdf3"
"24397",6,0,3,"baileys_700ml",10.99,FALSE,"D6-1",NA,13.99,"5de31945d521a00010b4fdf3"
"24398",6,0,4,"armilar_amaretto",4.99,FALSE,"D6-1",NA,NA,"5de31945d521a00010b4fdf3"
"24399",6,0,5,"kronenhof_advocaat",3.99,FALSE,"D6-1",NA,NA,"5de31945d521a00010b4fdf3"
"24400",6,0,6,"deluxe_irish_cream",6.99,FALSE,"D6-1",NA,NA,"5de31945d521a00010b4fdf3"
"24401",6,0,7,"baileys_500ml",7.99,FALSE,"D6-1",NA,NA,"5de31945d521a00010b4fdf3"
