"","trial_index","shelf_index","product_index","product","price","selected","scenario","latency","pre_discounted","id.session"
"2084",0,0,0,"gordons_export",11.99,FALSE,"F6-fill_4",NA,NA,"5de21dbfd521a00010b47de9"
"2085",0,0,1,"malibu",12.99,FALSE,"F6-fill_4",NA,NA,"5de21dbfd521a00010b47de9"
"2086",0,0,2,"smirnoff_de",12.99,FALSE,"F6-fill_4",NA,NA,"5de21dbfd521a00010b47de9"
"2087",0,0,3,"rotkappchen",4.99,TRUE,"F6-fill_4",15869,NA,"5de21dbfd521a00010b47de9"
"2088",0,0,4,"gordons_export_large",14.99,FALSE,"F6-fill_4",NA,NA,"5de21dbfd521a00010b47de9"
"2089",0,0,5,"blanchet_white",6.99,FALSE,"F6-fill_4",NA,NA,"5de21dbfd521a00010b47de9"
"2090",0,0,6,"lillet",12.99,FALSE,"F6-fill_4",NA,NA,"5de21dbfd521a00010b47de9"
"2091",0,0,7,"blanchet_red",6.99,FALSE,"F6-fill_4",NA,NA,"5de21dbfd521a00010b47de9"
"2092",0,0,8,"12_ouzo_reg",10.99,FALSE,"F6-fill_4",NA,NA,"5de21dbfd521a00010b47de9"
"2093",1,0,0,"rotkappchen",4.99,TRUE,"F5-fill_1",24112,NA,"5de21dbfd521a00010b47de9"
"2094",1,0,1,"blanchet_white",6.99,FALSE,"F5-fill_1",NA,9.99,"5de21dbfd521a00010b47de9"
"2095",1,0,2,"smirnoff_de",12.99,FALSE,"F5-fill_1",NA,NA,"5de21dbfd521a00010b47de9"
"2096",1,0,3,"gordons_export_large",14.99,FALSE,"F5-fill_1",NA,NA,"5de21dbfd521a00010b47de9"
"2097",1,0,4,"blanchet_red",6.99,FALSE,"F5-fill_1",NA,13.99,"5de21dbfd521a00010b47de9"
"2098",1,0,5,"gordons_export",11.99,FALSE,"F5-fill_1",NA,NA,"5de21dbfd521a00010b47de9"
"2099",1,0,6,"lillet",12.99,FALSE,"F5-fill_1",NA,16.99,"5de21dbfd521a00010b47de9"
"2100",1,0,7,"12_ouzo_reg",10.99,FALSE,"F5-fill_1",NA,16.99,"5de21dbfd521a00010b47de9"
"2101",1,0,8,"malibu",12.99,FALSE,"F5-fill_1",NA,NA,"5de21dbfd521a00010b47de9"
"2102",2,0,0,"averna",14.99,FALSE,"F5-2",NA,NA,"5de21dbfd521a00010b47de9"
"2103",2,0,1,"kronenhof_advocaat",3.99,FALSE,"F5-2",NA,NA,"5de21dbfd521a00010b47de9"
"2104",2,0,2,"ramazzotti",11.99,FALSE,"F5-2",NA,NA,"5de21dbfd521a00010b47de9"
"2105",2,0,3,"12_ouzo_reg",8.99,FALSE,"F5-2",NA,NA,"5de21dbfd521a00010b47de9"
"2106",2,0,4,"jagermeister",13.99,FALSE,"F5-2",NA,NA,"5de21dbfd521a00010b47de9"
"2107",2,0,5,"licor_43",11.99,FALSE,"F5-2",NA,NA,"5de21dbfd521a00010b47de9"
"2108",2,0,6,"high_mountains",3.99,FALSE,"F5-2",NA,NA,"5de21dbfd521a00010b47de9"
"2109",2,0,7,"baileys_700ml",13.99,TRUE,"F5-2",25570,NA,"5de21dbfd521a00010b47de9"
"2110",2,0,8,"disaronno",29.99,FALSE,"F5-2",NA,NA,"5de21dbfd521a00010b47de9"
"2111",2,0,9,"amarula",11.99,FALSE,"F5-2",NA,NA,"5de21dbfd521a00010b47de9"
"2112",3,0,0,"averna",14.99,FALSE,"F5-4",NA,NA,"5de21dbfd521a00010b47de9"
"2113",3,0,1,"disaronno",29.99,FALSE,"F5-4",NA,NA,"5de21dbfd521a00010b47de9"
"2114",3,0,2,"12_ouzo_reg",8.99,FALSE,"F5-4",NA,NA,"5de21dbfd521a00010b47de9"
"2115",3,0,3,"jagermeister",13.99,FALSE,"F5-4",NA,NA,"5de21dbfd521a00010b47de9"
"2116",3,0,4,"baileys_700ml",11.99,TRUE,"F5-4",10250,NA,"5de21dbfd521a00010b47de9"
"2117",3,0,5,"kronenhof_advocaat",3.99,FALSE,"F5-4",NA,NA,"5de21dbfd521a00010b47de9"
"2118",3,0,6,"high_mountains",3.99,FALSE,"F5-4",NA,NA,"5de21dbfd521a00010b47de9"
"2119",3,0,7,"licor_43",11.99,FALSE,"F5-4",NA,NA,"5de21dbfd521a00010b47de9"
"2120",3,0,8,"amarula",11.99,FALSE,"F5-4",NA,NA,"5de21dbfd521a00010b47de9"
"2121",3,0,9,"ramazzotti",11.99,FALSE,"F5-4",NA,NA,"5de21dbfd521a00010b47de9"
"2122",4,0,0,"ramazzotti",11.99,FALSE,"F6-1",NA,NA,"5de21dbfd521a00010b47de9"
"2123",4,0,1,"baileys_700ml",12.99,TRUE,"F6-1",15089,NA,"5de21dbfd521a00010b47de9"
"2124",4,0,2,"12_ouzo_reg",8.99,FALSE,"F6-1",NA,NA,"5de21dbfd521a00010b47de9"
"2125",4,0,3,"averna",14.99,FALSE,"F6-1",NA,NA,"5de21dbfd521a00010b47de9"
"2126",4,0,4,"disaronno",29.99,FALSE,"F6-1",NA,NA,"5de21dbfd521a00010b47de9"
"2127",4,0,5,"baileys_1000ml",17.99,FALSE,"F6-1",NA,18.99,"5de21dbfd521a00010b47de9"
"2128",4,0,6,"high_mountains",3.99,FALSE,"F6-1",NA,NA,"5de21dbfd521a00010b47de9"
"2129",4,0,7,"kronenhof_advocaat",3.99,FALSE,"F6-1",NA,NA,"5de21dbfd521a00010b47de9"
"2130",4,0,8,"jagermeister",13.99,FALSE,"F6-1",NA,NA,"5de21dbfd521a00010b47de9"
"2131",4,0,9,"amarula",11.99,FALSE,"F6-1",NA,NA,"5de21dbfd521a00010b47de9"
"2132",4,0,10,"licor_43",11.99,FALSE,"F6-1",NA,NA,"5de21dbfd521a00010b47de9"
"2133",5,0,0,"ramazzotti",11.99,FALSE,"F6-3",NA,NA,"5de21dbfd521a00010b47de9"
"2134",5,0,1,"baileys_700ml",12.99,TRUE,"F6-3",10927,NA,"5de21dbfd521a00010b47de9"
"2135",5,0,2,"amarula",11.99,FALSE,"F6-3",NA,NA,"5de21dbfd521a00010b47de9"
"2136",5,0,3,"kronenhof_advocaat",3.99,FALSE,"F6-3",NA,NA,"5de21dbfd521a00010b47de9"
"2137",5,0,4,"baileys_1000ml",15.99,FALSE,"F6-3",NA,18.99,"5de21dbfd521a00010b47de9"
"2138",5,0,5,"high_mountains",3.99,FALSE,"F6-3",NA,NA,"5de21dbfd521a00010b47de9"
"2139",5,0,6,"12_ouzo_reg",8.99,FALSE,"F6-3",NA,NA,"5de21dbfd521a00010b47de9"
"2140",5,0,7,"jagermeister",13.99,FALSE,"F6-3",NA,NA,"5de21dbfd521a00010b47de9"
"2141",5,0,8,"averna",14.99,FALSE,"F6-3",NA,NA,"5de21dbfd521a00010b47de9"
"2142",5,0,9,"disaronno",29.99,FALSE,"F6-3",NA,NA,"5de21dbfd521a00010b47de9"
"2143",5,0,10,"licor_43",11.99,FALSE,"F6-3",NA,NA,"5de21dbfd521a00010b47de9"
"2144",6,0,0,"blanchet_red",6.99,FALSE,"F6-fill_5",NA,NA,"5de21dbfd521a00010b47de9"
"2145",6,0,1,"12_ouzo_reg",10.99,FALSE,"F6-fill_5",NA,NA,"5de21dbfd521a00010b47de9"
"2146",6,0,2,"gordons_export_large",14.99,FALSE,"F6-fill_5",NA,17.99,"5de21dbfd521a00010b47de9"
"2147",6,0,3,"rotkappchen",4.99,TRUE,"F6-fill_5",3353,NA,"5de21dbfd521a00010b47de9"
"2148",6,0,4,"gordons_export",11.99,FALSE,"F6-fill_5",NA,NA,"5de21dbfd521a00010b47de9"
"2149",6,0,5,"lillet",12.99,FALSE,"F6-fill_5",NA,NA,"5de21dbfd521a00010b47de9"
"2150",6,0,6,"malibu",12.99,FALSE,"F6-fill_5",NA,16.99,"5de21dbfd521a00010b47de9"
"2151",6,0,7,"blanchet_white",6.99,FALSE,"F6-fill_5",NA,NA,"5de21dbfd521a00010b47de9"
"2152",6,0,8,"smirnoff_de",12.99,FALSE,"F6-fill_5",NA,19.99,"5de21dbfd521a00010b47de9"
"2153",7,0,0,"rotkappchen",4.99,TRUE,"F6-fill_2",4323,NA,"5de21dbfd521a00010b47de9"
"2154",7,0,1,"blanchet_white",6.99,FALSE,"F6-fill_2",NA,NA,"5de21dbfd521a00010b47de9"
"2155",7,0,2,"12_ouzo_reg",10.99,FALSE,"F6-fill_2",NA,13.99,"5de21dbfd521a00010b47de9"
"2156",7,0,3,"malibu",12.99,FALSE,"F6-fill_2",NA,NA,"5de21dbfd521a00010b47de9"
"2157",7,0,4,"gordons_export_large",14.99,FALSE,"F6-fill_2",NA,NA,"5de21dbfd521a00010b47de9"
"2158",7,0,5,"lillet",12.99,FALSE,"F6-fill_2",NA,NA,"5de21dbfd521a00010b47de9"
"2159",7,0,6,"gordons_export",11.99,FALSE,"F6-fill_2",NA,12.99,"5de21dbfd521a00010b47de9"
"2160",7,0,7,"smirnoff_de",12.99,FALSE,"F6-fill_2",NA,19.99,"5de21dbfd521a00010b47de9"
"2161",7,0,8,"blanchet_red",6.99,FALSE,"F6-fill_2",NA,NA,"5de21dbfd521a00010b47de9"
"2162",8,0,0,"lillet",12.99,FALSE,"F5-fill_5",NA,NA,"5de21dbfd521a00010b47de9"
"2163",8,0,1,"blanchet_red",6.99,FALSE,"F5-fill_5",NA,9.99,"5de21dbfd521a00010b47de9"
"2164",8,0,2,"rotkappchen",4.99,TRUE,"F5-fill_5",6469,NA,"5de21dbfd521a00010b47de9"
"2165",8,0,3,"smirnoff_de",12.99,FALSE,"F5-fill_5",NA,NA,"5de21dbfd521a00010b47de9"
"2166",8,0,4,"12_ouzo_reg",10.99,FALSE,"F5-fill_5",NA,NA,"5de21dbfd521a00010b47de9"
"2167",8,0,5,"gordons_export",11.99,FALSE,"F5-fill_5",NA,NA,"5de21dbfd521a00010b47de9"
"2168",8,0,6,"gordons_export_large",14.99,FALSE,"F5-fill_5",NA,NA,"5de21dbfd521a00010b47de9"
"2169",8,0,7,"malibu",12.99,FALSE,"F5-fill_5",NA,NA,"5de21dbfd521a00010b47de9"
"2170",8,0,8,"blanchet_white",6.99,FALSE,"F5-fill_5",NA,NA,"5de21dbfd521a00010b47de9"
"2171",9,0,0,"blanchet_red",6.99,FALSE,"F5-fill_4",NA,NA,"5de21dbfd521a00010b47de9"
"2172",9,0,1,"smirnoff_de",12.99,FALSE,"F5-fill_4",NA,19.99,"5de21dbfd521a00010b47de9"
"2173",9,0,2,"blanchet_white",6.99,FALSE,"F5-fill_4",NA,NA,"5de21dbfd521a00010b47de9"
"2174",9,0,3,"12_ouzo_reg",10.99,FALSE,"F5-fill_4",NA,NA,"5de21dbfd521a00010b47de9"
"2175",9,0,4,"gordons_export_large",14.99,FALSE,"F5-fill_4",NA,NA,"5de21dbfd521a00010b47de9"
"2176",9,0,5,"gordons_export",11.99,FALSE,"F5-fill_4",NA,NA,"5de21dbfd521a00010b47de9"
"2177",9,0,6,"rotkappchen",4.99,TRUE,"F5-fill_4",9894,NA,"5de21dbfd521a00010b47de9"
"2178",9,0,7,"lillet",12.99,FALSE,"F5-fill_4",NA,NA,"5de21dbfd521a00010b47de9"
"2179",9,0,8,"malibu",12.99,FALSE,"F5-fill_4",NA,NA,"5de21dbfd521a00010b47de9"
"2180",0,0,0,"averna",14.99,FALSE,"F6-4",NA,NA,"5de21ddd625af00010e78477"
"2181",0,0,1,"jagermeister",13.99,TRUE,"F6-4",8667,NA,"5de21ddd625af00010e78477"
"2182",0,0,2,"amarula",11.99,FALSE,"F6-4",NA,NA,"5de21ddd625af00010e78477"
"2183",0,0,3,"kronenhof_advocaat",3.99,FALSE,"F6-4",NA,NA,"5de21ddd625af00010e78477"
"2184",0,0,4,"licor_43",11.99,FALSE,"F6-4",NA,NA,"5de21ddd625af00010e78477"
"2185",0,0,5,"baileys_700ml",12.99,FALSE,"F6-4",NA,NA,"5de21ddd625af00010e78477"
"2186",0,0,6,"disaronno",29.99,FALSE,"F6-4",NA,NA,"5de21ddd625af00010e78477"
"2187",0,0,7,"12_ouzo_reg",8.99,FALSE,"F6-4",NA,NA,"5de21ddd625af00010e78477"
"2188",0,0,8,"baileys_1000ml",14.99,FALSE,"F6-4",NA,18.99,"5de21ddd625af00010e78477"
"2189",0,0,9,"ramazzotti",11.99,FALSE,"F6-4",NA,NA,"5de21ddd625af00010e78477"
"2190",0,0,10,"high_mountains",3.99,FALSE,"F6-4",NA,NA,"5de21ddd625af00010e78477"
"2191",1,0,0,"gordons_export",11.99,FALSE,"F5-fill_3",NA,17.99,"5de21ddd625af00010e78477"
"2192",1,0,1,"lillet",12.99,FALSE,"F5-fill_3",NA,NA,"5de21ddd625af00010e78477"
"2193",1,0,2,"gordons_export_large",14.99,FALSE,"F5-fill_3",NA,18.99,"5de21ddd625af00010e78477"
"2194",1,0,3,"blanchet_red",6.99,FALSE,"F5-fill_3",NA,NA,"5de21ddd625af00010e78477"
"2195",1,0,4,"rotkappchen",4.99,FALSE,"F5-fill_3",NA,NA,"5de21ddd625af00010e78477"
"2196",1,0,5,"malibu",12.99,FALSE,"F5-fill_3",NA,NA,"5de21ddd625af00010e78477"
"2197",1,0,6,"blanchet_white",6.99,FALSE,"F5-fill_3",NA,9.99,"5de21ddd625af00010e78477"
"2198",1,0,7,"12_ouzo_reg",10.99,FALSE,"F5-fill_3",NA,18.99,"5de21ddd625af00010e78477"
"2199",1,0,8,"smirnoff_de",12.99,TRUE,"F5-fill_3",3913,NA,"5de21ddd625af00010e78477"
"2200",2,0,0,"amarula",11.99,FALSE,"F5-1",NA,NA,"5de21ddd625af00010e78477"
"2201",2,0,1,"baileys_700ml",14.99,FALSE,"F5-1",NA,NA,"5de21ddd625af00010e78477"
"2202",2,0,2,"12_ouzo_reg",8.99,FALSE,"F5-1",NA,NA,"5de21ddd625af00010e78477"
"2203",2,0,3,"jagermeister",13.99,FALSE,"F5-1",NA,NA,"5de21ddd625af00010e78477"
"2204",2,0,4,"licor_43",11.99,FALSE,"F5-1",NA,NA,"5de21ddd625af00010e78477"
"2205",2,0,5,"high_mountains",3.99,FALSE,"F5-1",NA,NA,"5de21ddd625af00010e78477"
"2206",2,0,6,"kronenhof_advocaat",3.99,FALSE,"F5-1",NA,NA,"5de21ddd625af00010e78477"
"2207",2,0,7,"averna",14.99,TRUE,"F5-1",1992,NA,"5de21ddd625af00010e78477"
"2208",2,0,8,"disaronno",29.99,FALSE,"F5-1",NA,NA,"5de21ddd625af00010e78477"
"2209",2,0,9,"ramazzotti",11.99,FALSE,"F5-1",NA,NA,"5de21ddd625af00010e78477"
"2210",3,0,0,"jagermeister",13.99,FALSE,"F6-2",NA,NA,"5de21ddd625af00010e78477"
"2211",3,0,1,"licor_43",11.99,FALSE,"F6-2",NA,NA,"5de21ddd625af00010e78477"
"2212",3,0,2,"disaronno",29.99,FALSE,"F6-2",NA,NA,"5de21ddd625af00010e78477"
"2213",3,0,3,"high_mountains",3.99,FALSE,"F6-2",NA,NA,"5de21ddd625af00010e78477"
"2214",3,0,4,"ramazzotti",11.99,FALSE,"F6-2",NA,NA,"5de21ddd625af00010e78477"
"2215",3,0,5,"baileys_1000ml",16.99,TRUE,"F6-2",3870,18.99,"5de21ddd625af00010e78477"
"2216",3,0,6,"averna",14.99,FALSE,"F6-2",NA,NA,"5de21ddd625af00010e78477"
"2217",3,0,7,"kronenhof_advocaat",3.99,FALSE,"F6-2",NA,NA,"5de21ddd625af00010e78477"
"2218",3,0,8,"amarula",11.99,FALSE,"F6-2",NA,NA,"5de21ddd625af00010e78477"
"2219",3,0,9,"baileys_700ml",12.99,FALSE,"F6-2",NA,NA,"5de21ddd625af00010e78477"
"2220",3,0,10,"12_ouzo_reg",8.99,FALSE,"F6-2",NA,NA,"5de21ddd625af00010e78477"
"2221",4,0,0,"kronenhof_advocaat",3.99,FALSE,"F5-2",NA,NA,"5de21ddd625af00010e78477"
"2222",4,0,1,"averna",14.99,FALSE,"F5-2",NA,NA,"5de21ddd625af00010e78477"
"2223",4,0,2,"12_ouzo_reg",8.99,FALSE,"F5-2",NA,NA,"5de21ddd625af00010e78477"
"2224",4,0,3,"high_mountains",3.99,FALSE,"F5-2",NA,NA,"5de21ddd625af00010e78477"
"2225",4,0,4,"jagermeister",13.99,FALSE,"F5-2",NA,NA,"5de21ddd625af00010e78477"
"2226",4,0,5,"ramazzotti",11.99,FALSE,"F5-2",NA,NA,"5de21ddd625af00010e78477"
"2227",4,0,6,"baileys_700ml",13.99,TRUE,"F5-2",1507,NA,"5de21ddd625af00010e78477"
"2228",4,0,7,"licor_43",11.99,FALSE,"F5-2",NA,NA,"5de21ddd625af00010e78477"
"2229",4,0,8,"amarula",11.99,FALSE,"F5-2",NA,NA,"5de21ddd625af00010e78477"
"2230",4,0,9,"disaronno",29.99,FALSE,"F5-2",NA,NA,"5de21ddd625af00010e78477"
"2231",5,0,0,"malibu",12.99,FALSE,"F5-fill_5",NA,NA,"5de21ddd625af00010e78477"
"2232",5,0,1,"lillet",12.99,FALSE,"F5-fill_5",NA,NA,"5de21ddd625af00010e78477"
"2233",5,0,2,"smirnoff_de",12.99,TRUE,"F5-fill_5",2753,NA,"5de21ddd625af00010e78477"
"2234",5,0,3,"blanchet_red",6.99,FALSE,"F5-fill_5",NA,9.99,"5de21ddd625af00010e78477"
"2235",5,0,4,"rotkappchen",4.99,FALSE,"F5-fill_5",NA,NA,"5de21ddd625af00010e78477"
"2236",5,0,5,"blanchet_white",6.99,FALSE,"F5-fill_5",NA,NA,"5de21ddd625af00010e78477"
"2237",5,0,6,"gordons_export_large",14.99,FALSE,"F5-fill_5",NA,NA,"5de21ddd625af00010e78477"
"2238",5,0,7,"gordons_export",11.99,FALSE,"F5-fill_5",NA,NA,"5de21ddd625af00010e78477"
"2239",5,0,8,"12_ouzo_reg",10.99,FALSE,"F5-fill_5",NA,NA,"5de21ddd625af00010e78477"
"2240",6,0,0,"high_mountains",3.99,FALSE,"F6-1",NA,NA,"5de21ddd625af00010e78477"
"2241",6,0,1,"baileys_700ml",12.99,FALSE,"F6-1",NA,NA,"5de21ddd625af00010e78477"
"2242",6,0,2,"12_ouzo_reg",8.99,FALSE,"F6-1",NA,NA,"5de21ddd625af00010e78477"
"2243",6,0,3,"kronenhof_advocaat",3.99,FALSE,"F6-1",NA,NA,"5de21ddd625af00010e78477"
"2244",6,0,4,"baileys_1000ml",17.99,FALSE,"F6-1",NA,18.99,"5de21ddd625af00010e78477"
"2245",6,0,5,"ramazzotti",11.99,FALSE,"F6-1",NA,NA,"5de21ddd625af00010e78477"
"2246",6,0,6,"jagermeister",13.99,FALSE,"F6-1",NA,NA,"5de21ddd625af00010e78477"
"2247",6,0,7,"licor_43",11.99,FALSE,"F6-1",NA,NA,"5de21ddd625af00010e78477"
"2248",6,0,8,"amarula",11.99,FALSE,"F6-1",NA,NA,"5de21ddd625af00010e78477"
"2249",6,0,9,"disaronno",29.99,FALSE,"F6-1",NA,NA,"5de21ddd625af00010e78477"
"2250",6,0,10,"averna",14.99,TRUE,"F6-1",3089,NA,"5de21ddd625af00010e78477"
"2251",7,0,0,"malibu",12.99,FALSE,"F6-fill_3",NA,NA,"5de21ddd625af00010e78477"
"2252",7,0,1,"rotkappchen",4.99,FALSE,"F6-fill_3",NA,NA,"5de21ddd625af00010e78477"
"2253",7,0,2,"blanchet_white",6.99,FALSE,"F6-fill_3",NA,NA,"5de21ddd625af00010e78477"
"2254",7,0,3,"gordons_export",11.99,FALSE,"F6-fill_3",NA,NA,"5de21ddd625af00010e78477"
"2255",7,0,4,"lillet",12.99,FALSE,"F6-fill_3",NA,15.99,"5de21ddd625af00010e78477"
"2256",7,0,5,"gordons_export_large",14.99,FALSE,"F6-fill_3",NA,NA,"5de21ddd625af00010e78477"
"2257",7,0,6,"smirnoff_de",12.99,TRUE,"F6-fill_3",2267,NA,"5de21ddd625af00010e78477"
"2258",7,0,7,"12_ouzo_reg",10.99,FALSE,"F6-fill_3",NA,NA,"5de21ddd625af00010e78477"
"2259",7,0,8,"blanchet_red",6.99,FALSE,"F6-fill_3",NA,NA,"5de21ddd625af00010e78477"
"2260",8,0,0,"12_ouzo_reg",10.99,FALSE,"F5-fill_4",NA,NA,"5de21ddd625af00010e78477"
"2261",8,0,1,"rotkappchen",4.99,FALSE,"F5-fill_4",NA,NA,"5de21ddd625af00010e78477"
"2262",8,0,2,"blanchet_red",6.99,TRUE,"F5-fill_4",2603,NA,"5de21ddd625af00010e78477"
"2263",8,0,3,"blanchet_white",6.99,FALSE,"F5-fill_4",NA,NA,"5de21ddd625af00010e78477"
"2264",8,0,4,"gordons_export_large",14.99,FALSE,"F5-fill_4",NA,NA,"5de21ddd625af00010e78477"
"2265",8,0,5,"lillet",12.99,FALSE,"F5-fill_4",NA,NA,"5de21ddd625af00010e78477"
"2266",8,0,6,"malibu",12.99,FALSE,"F5-fill_4",NA,NA,"5de21ddd625af00010e78477"
"2267",8,0,7,"smirnoff_de",12.99,FALSE,"F5-fill_4",NA,19.99,"5de21ddd625af00010e78477"
"2268",8,0,8,"gordons_export",11.99,FALSE,"F5-fill_4",NA,NA,"5de21ddd625af00010e78477"
"2269",9,0,0,"12_ouzo_reg",8.99,FALSE,"F5-5",NA,NA,"5de21ddd625af00010e78477"
"2270",9,0,1,"high_mountains",3.99,FALSE,"F5-5",NA,NA,"5de21ddd625af00010e78477"
"2271",9,0,2,"licor_43",11.99,FALSE,"F5-5",NA,NA,"5de21ddd625af00010e78477"
"2272",9,0,3,"disaronno",29.99,FALSE,"F5-5",NA,NA,"5de21ddd625af00010e78477"
"2273",9,0,4,"kronenhof_advocaat",3.99,FALSE,"F5-5",NA,NA,"5de21ddd625af00010e78477"
"2274",9,0,5,"baileys_700ml",10.99,FALSE,"F5-5",NA,NA,"5de21ddd625af00010e78477"
"2275",9,0,6,"jagermeister",13.99,TRUE,"F5-5",1448,NA,"5de21ddd625af00010e78477"
"2276",9,0,7,"averna",14.99,FALSE,"F5-5",NA,NA,"5de21ddd625af00010e78477"
"2277",9,0,8,"ramazzotti",11.99,FALSE,"F5-5",NA,NA,"5de21ddd625af00010e78477"
"2278",9,0,9,"amarula",11.99,FALSE,"F5-5",NA,NA,"5de21ddd625af00010e78477"
"2452",0,0,0,"smirnoff_de",12.99,FALSE,"F6-fill_2",NA,19.99,"5de21e36625af00010e784cd"
"2453",0,0,1,"rotkappchen",4.99,TRUE,"F6-fill_2",29572,NA,"5de21e36625af00010e784cd"
"2454",0,0,2,"malibu",12.99,FALSE,"F6-fill_2",NA,NA,"5de21e36625af00010e784cd"
"2455",0,0,3,"gordons_export",11.99,FALSE,"F6-fill_2",NA,12.99,"5de21e36625af00010e784cd"
"2456",0,0,4,"blanchet_red",6.99,FALSE,"F6-fill_2",NA,NA,"5de21e36625af00010e784cd"
"2457",0,0,5,"12_ouzo_reg",10.99,FALSE,"F6-fill_2",NA,13.99,"5de21e36625af00010e784cd"
"2458",0,0,6,"lillet",12.99,FALSE,"F6-fill_2",NA,NA,"5de21e36625af00010e784cd"
"2459",0,0,7,"blanchet_white",6.99,FALSE,"F6-fill_2",NA,NA,"5de21e36625af00010e784cd"
"2460",0,0,8,"gordons_export_large",14.99,FALSE,"F6-fill_2",NA,NA,"5de21e36625af00010e784cd"
"2461",1,0,0,"malibu",12.99,FALSE,"F6-fill_3",NA,NA,"5de21e36625af00010e784cd"
"2462",1,0,1,"lillet",12.99,FALSE,"F6-fill_3",NA,15.99,"5de21e36625af00010e784cd"
"2463",1,0,2,"12_ouzo_reg",10.99,TRUE,"F6-fill_3",11862,NA,"5de21e36625af00010e784cd"
"2464",1,0,3,"blanchet_white",6.99,FALSE,"F6-fill_3",NA,NA,"5de21e36625af00010e784cd"
"2465",1,0,4,"smirnoff_de",12.99,FALSE,"F6-fill_3",NA,NA,"5de21e36625af00010e784cd"
"2466",1,0,5,"gordons_export_large",14.99,FALSE,"F6-fill_3",NA,NA,"5de21e36625af00010e784cd"
"2467",1,0,6,"gordons_export",11.99,FALSE,"F6-fill_3",NA,NA,"5de21e36625af00010e784cd"
"2468",1,0,7,"blanchet_red",6.99,FALSE,"F6-fill_3",NA,NA,"5de21e36625af00010e784cd"
"2469",1,0,8,"rotkappchen",4.99,FALSE,"F6-fill_3",NA,NA,"5de21e36625af00010e784cd"
"2470",2,0,0,"disaronno",29.99,FALSE,"F5-5",NA,NA,"5de21e36625af00010e784cd"
"2471",2,0,1,"jagermeister",13.99,TRUE,"F5-5",7778,NA,"5de21e36625af00010e784cd"
"2472",2,0,2,"amarula",11.99,FALSE,"F5-5",NA,NA,"5de21e36625af00010e784cd"
"2473",2,0,3,"baileys_700ml",10.99,FALSE,"F5-5",NA,NA,"5de21e36625af00010e784cd"
"2474",2,0,4,"kronenhof_advocaat",3.99,FALSE,"F5-5",NA,NA,"5de21e36625af00010e784cd"
"2475",2,0,5,"ramazzotti",11.99,FALSE,"F5-5",NA,NA,"5de21e36625af00010e784cd"
"2476",2,0,6,"averna",14.99,FALSE,"F5-5",NA,NA,"5de21e36625af00010e784cd"
"2477",2,0,7,"high_mountains",3.99,FALSE,"F5-5",NA,NA,"5de21e36625af00010e784cd"
"2478",2,0,8,"12_ouzo_reg",8.99,FALSE,"F5-5",NA,NA,"5de21e36625af00010e784cd"
"2479",2,0,9,"licor_43",11.99,FALSE,"F5-5",NA,NA,"5de21e36625af00010e784cd"
"2480",3,0,0,"blanchet_white",6.99,FALSE,"F5-fill_1",NA,9.99,"5de21e36625af00010e784cd"
"2481",3,0,1,"rotkappchen",4.99,TRUE,"F5-fill_1",13602,NA,"5de21e36625af00010e784cd"
"2482",3,0,2,"blanchet_red",6.99,FALSE,"F5-fill_1",NA,13.99,"5de21e36625af00010e784cd"
"2483",3,0,3,"12_ouzo_reg",10.99,FALSE,"F5-fill_1",NA,16.99,"5de21e36625af00010e784cd"
"2484",3,0,4,"malibu",12.99,FALSE,"F5-fill_1",NA,NA,"5de21e36625af00010e784cd"
"2485",3,0,5,"gordons_export",11.99,FALSE,"F5-fill_1",NA,NA,"5de21e36625af00010e784cd"
"2486",3,0,6,"gordons_export_large",14.99,FALSE,"F5-fill_1",NA,NA,"5de21e36625af00010e784cd"
"2487",3,0,7,"smirnoff_de",12.99,FALSE,"F5-fill_1",NA,NA,"5de21e36625af00010e784cd"
"2488",3,0,8,"lillet",12.99,FALSE,"F5-fill_1",NA,16.99,"5de21e36625af00010e784cd"
"2489",4,0,0,"jagermeister",13.99,TRUE,"F5-4",7143,NA,"5de21e36625af00010e784cd"
"2490",4,0,1,"baileys_700ml",11.99,FALSE,"F5-4",NA,NA,"5de21e36625af00010e784cd"
"2491",4,0,2,"high_mountains",3.99,FALSE,"F5-4",NA,NA,"5de21e36625af00010e784cd"
"2492",4,0,3,"averna",14.99,FALSE,"F5-4",NA,NA,"5de21e36625af00010e784cd"
"2493",4,0,4,"ramazzotti",11.99,FALSE,"F5-4",NA,NA,"5de21e36625af00010e784cd"
"2494",4,0,5,"licor_43",11.99,FALSE,"F5-4",NA,NA,"5de21e36625af00010e784cd"
"2495",4,0,6,"amarula",11.99,FALSE,"F5-4",NA,NA,"5de21e36625af00010e784cd"
"2496",4,0,7,"12_ouzo_reg",8.99,FALSE,"F5-4",NA,NA,"5de21e36625af00010e784cd"
"2497",4,0,8,"disaronno",29.99,FALSE,"F5-4",NA,NA,"5de21e36625af00010e784cd"
"2498",4,0,9,"kronenhof_advocaat",3.99,FALSE,"F5-4",NA,NA,"5de21e36625af00010e784cd"
"2499",5,0,0,"lillet",12.99,FALSE,"F6-fill_1",NA,14.99,"5de21e36625af00010e784cd"
"2500",5,0,1,"blanchet_red",6.99,FALSE,"F6-fill_1",NA,NA,"5de21e36625af00010e784cd"
"2501",5,0,2,"gordons_export",11.99,FALSE,"F6-fill_1",NA,NA,"5de21e36625af00010e784cd"
"2502",5,0,3,"malibu",12.99,FALSE,"F6-fill_1",NA,NA,"5de21e36625af00010e784cd"
"2503",5,0,4,"gordons_export_large",14.99,FALSE,"F6-fill_1",NA,21.99,"5de21e36625af00010e784cd"
"2504",5,0,5,"smirnoff_de",12.99,FALSE,"F6-fill_1",NA,NA,"5de21e36625af00010e784cd"
"2505",5,0,6,"blanchet_white",6.99,FALSE,"F6-fill_1",NA,NA,"5de21e36625af00010e784cd"
"2506",5,0,7,"12_ouzo_reg",10.99,FALSE,"F6-fill_1",NA,NA,"5de21e36625af00010e784cd"
"2507",5,0,8,"rotkappchen",4.99,TRUE,"F6-fill_1",9658,NA,"5de21e36625af00010e784cd"
"2508",6,0,0,"high_mountains",3.99,FALSE,"F5-2",NA,NA,"5de21e36625af00010e784cd"
"2509",6,0,1,"licor_43",11.99,FALSE,"F5-2",NA,NA,"5de21e36625af00010e784cd"
"2510",6,0,2,"amarula",11.99,FALSE,"F5-2",NA,NA,"5de21e36625af00010e784cd"
"2511",6,0,3,"jagermeister",13.99,FALSE,"F5-2",NA,NA,"5de21e36625af00010e784cd"
"2512",6,0,4,"kronenhof_advocaat",3.99,FALSE,"F5-2",NA,NA,"5de21e36625af00010e784cd"
"2513",6,0,5,"disaronno",29.99,FALSE,"F5-2",NA,NA,"5de21e36625af00010e784cd"
"2514",6,0,6,"12_ouzo_reg",8.99,TRUE,"F5-2",2557,NA,"5de21e36625af00010e784cd"
"2515",6,0,7,"ramazzotti",11.99,FALSE,"F5-2",NA,NA,"5de21e36625af00010e784cd"
"2516",6,0,8,"averna",14.99,FALSE,"F5-2",NA,NA,"5de21e36625af00010e784cd"
"2517",6,0,9,"baileys_700ml",13.99,FALSE,"F5-2",NA,NA,"5de21e36625af00010e784cd"
"2518",7,0,0,"12_ouzo_reg",8.99,FALSE,"F5-3",NA,NA,"5de21e36625af00010e784cd"
"2519",7,0,1,"kronenhof_advocaat",3.99,FALSE,"F5-3",NA,NA,"5de21e36625af00010e784cd"
"2520",7,0,2,"disaronno",29.99,FALSE,"F5-3",NA,NA,"5de21e36625af00010e784cd"
"2521",7,0,3,"licor_43",11.99,FALSE,"F5-3",NA,NA,"5de21e36625af00010e784cd"
"2522",7,0,4,"jagermeister",13.99,TRUE,"F5-3",11493,NA,"5de21e36625af00010e784cd"
"2523",7,0,5,"ramazzotti",11.99,FALSE,"F5-3",NA,NA,"5de21e36625af00010e784cd"
"2524",7,0,6,"high_mountains",3.99,FALSE,"F5-3",NA,NA,"5de21e36625af00010e784cd"
"2525",7,0,7,"amarula",11.99,FALSE,"F5-3",NA,NA,"5de21e36625af00010e784cd"
"2526",7,0,8,"averna",14.99,FALSE,"F5-3",NA,NA,"5de21e36625af00010e784cd"
"2527",7,0,9,"baileys_700ml",12.99,FALSE,"F5-3",NA,NA,"5de21e36625af00010e784cd"
"2528",8,0,0,"kronenhof_advocaat",3.99,FALSE,"F5-1",NA,NA,"5de21e36625af00010e784cd"
"2529",8,0,1,"baileys_700ml",14.99,FALSE,"F5-1",NA,NA,"5de21e36625af00010e784cd"
"2530",8,0,2,"jagermeister",13.99,FALSE,"F5-1",NA,NA,"5de21e36625af00010e784cd"
"2531",8,0,3,"licor_43",11.99,FALSE,"F5-1",NA,NA,"5de21e36625af00010e784cd"
"2532",8,0,4,"amarula",11.99,FALSE,"F5-1",NA,NA,"5de21e36625af00010e784cd"
"2533",8,0,5,"12_ouzo_reg",8.99,TRUE,"F5-1",17846,NA,"5de21e36625af00010e784cd"
"2534",8,0,6,"ramazzotti",11.99,FALSE,"F5-1",NA,NA,"5de21e36625af00010e784cd"
"2535",8,0,7,"high_mountains",3.99,FALSE,"F5-1",NA,NA,"5de21e36625af00010e784cd"
"2536",8,0,8,"averna",14.99,FALSE,"F5-1",NA,NA,"5de21e36625af00010e784cd"
"2537",8,0,9,"disaronno",29.99,FALSE,"F5-1",NA,NA,"5de21e36625af00010e784cd"
"2538",9,0,0,"lillet",12.99,FALSE,"F5-fill_2",NA,NA,"5de21e36625af00010e784cd"
"2539",9,0,1,"gordons_export",11.99,FALSE,"F5-fill_2",NA,17.99,"5de21e36625af00010e784cd"
"2540",9,0,2,"blanchet_red",6.99,FALSE,"F5-fill_2",NA,NA,"5de21e36625af00010e784cd"
"2541",9,0,3,"smirnoff_de",12.99,TRUE,"F5-fill_2",7097,NA,"5de21e36625af00010e784cd"
"2542",9,0,4,"gordons_export_large",14.99,FALSE,"F5-fill_2",NA,NA,"5de21e36625af00010e784cd"
"2543",9,0,5,"malibu",12.99,FALSE,"F5-fill_2",NA,NA,"5de21e36625af00010e784cd"
"2544",9,0,6,"12_ouzo_reg",10.99,FALSE,"F5-fill_2",NA,NA,"5de21e36625af00010e784cd"
"2545",9,0,7,"rotkappchen",4.99,FALSE,"F5-fill_2",NA,NA,"5de21e36625af00010e784cd"
"2546",9,0,8,"blanchet_white",6.99,FALSE,"F5-fill_2",NA,NA,"5de21e36625af00010e784cd"
"2631",0,0,0,"kronenhof_advocaat",3.99,FALSE,"F5-1",NA,NA,"5de232e8625af00010e787da"
"2632",0,0,1,"12_ouzo_reg",8.99,FALSE,"F5-1",NA,NA,"5de232e8625af00010e787da"
"2633",0,0,2,"jagermeister",13.99,FALSE,"F5-1",NA,NA,"5de232e8625af00010e787da"
"2634",0,0,3,"ramazzotti",11.99,FALSE,"F5-1",NA,NA,"5de232e8625af00010e787da"
"2635",0,0,4,"averna",14.99,FALSE,"F5-1",NA,NA,"5de232e8625af00010e787da"
"2636",0,0,5,"baileys_700ml",14.99,TRUE,"F5-1",4016,NA,"5de232e8625af00010e787da"
"2637",0,0,6,"amarula",11.99,FALSE,"F5-1",NA,NA,"5de232e8625af00010e787da"
"2638",0,0,7,"disaronno",29.99,FALSE,"F5-1",NA,NA,"5de232e8625af00010e787da"
"2639",0,0,8,"licor_43",11.99,FALSE,"F5-1",NA,NA,"5de232e8625af00010e787da"
"2640",0,0,9,"high_mountains",3.99,FALSE,"F5-1",NA,NA,"5de232e8625af00010e787da"
"2641",1,0,0,"ramazzotti",11.99,FALSE,"F6-3",NA,NA,"5de232e8625af00010e787da"
"2642",1,0,1,"12_ouzo_reg",8.99,FALSE,"F6-3",NA,NA,"5de232e8625af00010e787da"
"2643",1,0,2,"high_mountains",3.99,FALSE,"F6-3",NA,NA,"5de232e8625af00010e787da"
"2644",1,0,3,"kronenhof_advocaat",3.99,TRUE,"F6-3",998,NA,"5de232e8625af00010e787da"
"2645",1,0,4,"averna",14.99,FALSE,"F6-3",NA,NA,"5de232e8625af00010e787da"
"2646",1,0,5,"licor_43",11.99,FALSE,"F6-3",NA,NA,"5de232e8625af00010e787da"
"2647",1,0,6,"jagermeister",13.99,FALSE,"F6-3",NA,NA,"5de232e8625af00010e787da"
"2648",1,0,7,"amarula",11.99,FALSE,"F6-3",NA,NA,"5de232e8625af00010e787da"
"2649",1,0,8,"disaronno",29.99,FALSE,"F6-3",NA,NA,"5de232e8625af00010e787da"
"2650",1,0,9,"baileys_1000ml",15.99,FALSE,"F6-3",NA,18.99,"5de232e8625af00010e787da"
"2651",1,0,10,"baileys_700ml",12.99,FALSE,"F6-3",NA,NA,"5de232e8625af00010e787da"
"2652",2,0,0,"malibu",12.99,FALSE,"F6-fill_5",NA,16.99,"5de232e8625af00010e787da"
"2653",2,0,1,"lillet",12.99,FALSE,"F6-fill_5",NA,NA,"5de232e8625af00010e787da"
"2654",2,0,2,"rotkappchen",4.99,FALSE,"F6-fill_5",NA,NA,"5de232e8625af00010e787da"
"2655",2,0,3,"gordons_export",11.99,FALSE,"F6-fill_5",NA,NA,"5de232e8625af00010e787da"
"2656",2,0,4,"smirnoff_de",12.99,TRUE,"F6-fill_5",694,19.99,"5de232e8625af00010e787da"
"2657",2,0,5,"blanchet_white",6.99,FALSE,"F6-fill_5",NA,NA,"5de232e8625af00010e787da"
"2658",2,0,6,"12_ouzo_reg",10.99,FALSE,"F6-fill_5",NA,NA,"5de232e8625af00010e787da"
"2659",2,0,7,"gordons_export_large",14.99,FALSE,"F6-fill_5",NA,17.99,"5de232e8625af00010e787da"
"2660",2,0,8,"blanchet_red",6.99,FALSE,"F6-fill_5",NA,NA,"5de232e8625af00010e787da"
"2661",3,0,0,"kronenhof_advocaat",3.99,FALSE,"F6-1",NA,NA,"5de232e8625af00010e787da"
"2662",3,0,1,"high_mountains",3.99,FALSE,"F6-1",NA,NA,"5de232e8625af00010e787da"
"2663",3,0,2,"ramazzotti",11.99,FALSE,"F6-1",NA,NA,"5de232e8625af00010e787da"
"2664",3,0,3,"averna",14.99,FALSE,"F6-1",NA,NA,"5de232e8625af00010e787da"
"2665",3,0,4,"disaronno",29.99,FALSE,"F6-1",NA,NA,"5de232e8625af00010e787da"
"2666",3,0,5,"amarula",11.99,FALSE,"F6-1",NA,NA,"5de232e8625af00010e787da"
"2667",3,0,6,"12_ouzo_reg",8.99,FALSE,"F6-1",NA,NA,"5de232e8625af00010e787da"
"2668",3,0,7,"baileys_1000ml",17.99,TRUE,"F6-1",86,18.99,"5de232e8625af00010e787da"
"2669",3,0,8,"baileys_700ml",12.99,FALSE,"F6-1",NA,NA,"5de232e8625af00010e787da"
"2670",3,0,9,"licor_43",11.99,FALSE,"F6-1",NA,NA,"5de232e8625af00010e787da"
"2671",3,0,10,"jagermeister",13.99,FALSE,"F6-1",NA,NA,"5de232e8625af00010e787da"
"2672",4,0,0,"malibu",12.99,FALSE,"F5-fill_3",NA,NA,"5de232e8625af00010e787da"
"2673",4,0,1,"smirnoff_de",12.99,FALSE,"F5-fill_3",NA,NA,"5de232e8625af00010e787da"
"2674",4,0,2,"blanchet_red",6.99,FALSE,"F5-fill_3",NA,NA,"5de232e8625af00010e787da"
"2675",4,0,3,"rotkappchen",4.99,FALSE,"F5-fill_3",NA,NA,"5de232e8625af00010e787da"
"2676",4,0,4,"gordons_export_large",14.99,TRUE,"F5-fill_3",58,18.99,"5de232e8625af00010e787da"
"2677",4,0,5,"gordons_export",11.99,FALSE,"F5-fill_3",NA,17.99,"5de232e8625af00010e787da"
"2678",4,0,6,"12_ouzo_reg",10.99,FALSE,"F5-fill_3",NA,18.99,"5de232e8625af00010e787da"
"2679",4,0,7,"blanchet_white",6.99,FALSE,"F5-fill_3",NA,9.99,"5de232e8625af00010e787da"
"2680",4,0,8,"lillet",12.99,FALSE,"F5-fill_3",NA,NA,"5de232e8625af00010e787da"
"2681",5,0,0,"smirnoff_de",12.99,FALSE,"F6-fill_4",NA,NA,"5de232e8625af00010e787da"
"2682",5,0,1,"malibu",12.99,TRUE,"F6-fill_4",673,NA,"5de232e8625af00010e787da"
"2683",5,0,2,"blanchet_red",6.99,FALSE,"F6-fill_4",NA,NA,"5de232e8625af00010e787da"
"2684",5,0,3,"gordons_export",11.99,FALSE,"F6-fill_4",NA,NA,"5de232e8625af00010e787da"
"2685",5,0,4,"rotkappchen",4.99,FALSE,"F6-fill_4",NA,NA,"5de232e8625af00010e787da"
"2686",5,0,5,"blanchet_white",6.99,FALSE,"F6-fill_4",NA,NA,"5de232e8625af00010e787da"
"2687",5,0,6,"12_ouzo_reg",10.99,FALSE,"F6-fill_4",NA,NA,"5de232e8625af00010e787da"
"2688",5,0,7,"lillet",12.99,FALSE,"F6-fill_4",NA,NA,"5de232e8625af00010e787da"
"2689",5,0,8,"gordons_export_large",14.99,FALSE,"F6-fill_4",NA,NA,"5de232e8625af00010e787da"
"2690",6,0,0,"gordons_export",11.99,FALSE,"F5-fill_4",NA,NA,"5de232e8625af00010e787da"
"2691",6,0,1,"12_ouzo_reg",10.99,FALSE,"F5-fill_4",NA,NA,"5de232e8625af00010e787da"
"2692",6,0,2,"smirnoff_de",12.99,FALSE,"F5-fill_4",NA,19.99,"5de232e8625af00010e787da"
"2693",6,0,3,"gordons_export_large",14.99,FALSE,"F5-fill_4",NA,NA,"5de232e8625af00010e787da"
"2694",6,0,4,"lillet",12.99,TRUE,"F5-fill_4",1914,NA,"5de232e8625af00010e787da"
"2695",6,0,5,"blanchet_white",6.99,FALSE,"F5-fill_4",NA,NA,"5de232e8625af00010e787da"
"2696",6,0,6,"rotkappchen",4.99,FALSE,"F5-fill_4",NA,NA,"5de232e8625af00010e787da"
"2697",6,0,7,"malibu",12.99,FALSE,"F5-fill_4",NA,NA,"5de232e8625af00010e787da"
"2698",6,0,8,"blanchet_red",6.99,FALSE,"F5-fill_4",NA,NA,"5de232e8625af00010e787da"
"2699",7,0,0,"gordons_export",11.99,FALSE,"F5-fill_1",NA,NA,"5de232e8625af00010e787da"
"2700",7,0,1,"malibu",12.99,FALSE,"F5-fill_1",NA,NA,"5de232e8625af00010e787da"
"2701",7,0,2,"lillet",12.99,FALSE,"F5-fill_1",NA,16.99,"5de232e8625af00010e787da"
"2702",7,0,3,"smirnoff_de",12.99,TRUE,"F5-fill_1",700,NA,"5de232e8625af00010e787da"
"2703",7,0,4,"12_ouzo_reg",10.99,FALSE,"F5-fill_1",NA,16.99,"5de232e8625af00010e787da"
"2704",7,0,5,"gordons_export_large",14.99,FALSE,"F5-fill_1",NA,NA,"5de232e8625af00010e787da"
"2705",7,0,6,"rotkappchen",4.99,FALSE,"F5-fill_1",NA,NA,"5de232e8625af00010e787da"
"2706",7,0,7,"blanchet_white",6.99,FALSE,"F5-fill_1",NA,9.99,"5de232e8625af00010e787da"
"2707",7,0,8,"blanchet_red",6.99,FALSE,"F5-fill_1",NA,13.99,"5de232e8625af00010e787da"
"2708",8,0,0,"amarula",11.99,FALSE,"F6-5",NA,NA,"5de232e8625af00010e787da"
"2709",8,0,1,"disaronno",29.99,FALSE,"F6-5",NA,NA,"5de232e8625af00010e787da"
"2710",8,0,2,"12_ouzo_reg",8.99,FALSE,"F6-5",NA,NA,"5de232e8625af00010e787da"
"2711",8,0,3,"kronenhof_advocaat",3.99,FALSE,"F6-5",NA,NA,"5de232e8625af00010e787da"
"2712",8,0,4,"jagermeister",13.99,FALSE,"F6-5",NA,NA,"5de232e8625af00010e787da"
"2713",8,0,5,"ramazzotti",11.99,FALSE,"F6-5",NA,NA,"5de232e8625af00010e787da"
"2714",8,0,6,"baileys_700ml",12.99,FALSE,"F6-5",NA,NA,"5de232e8625af00010e787da"
"2715",8,0,7,"averna",14.99,FALSE,"F6-5",NA,NA,"5de232e8625af00010e787da"
"2716",8,0,8,"baileys_1000ml",13.99,FALSE,"F6-5",NA,18.99,"5de232e8625af00010e787da"
"2717",8,0,9,"licor_43",11.99,FALSE,"F6-5",NA,NA,"5de232e8625af00010e787da"
"2718",8,0,10,"high_mountains",3.99,TRUE,"F6-5",3319,NA,"5de232e8625af00010e787da"
"2719",9,0,0,"kronenhof_advocaat",3.99,FALSE,"F5-4",NA,NA,"5de232e8625af00010e787da"
"2720",9,0,1,"jagermeister",13.99,FALSE,"F5-4",NA,NA,"5de232e8625af00010e787da"
"2721",9,0,2,"licor_43",11.99,FALSE,"F5-4",NA,NA,"5de232e8625af00010e787da"
"2722",9,0,3,"averna",14.99,FALSE,"F5-4",NA,NA,"5de232e8625af00010e787da"
"2723",9,0,4,"amarula",11.99,FALSE,"F5-4",NA,NA,"5de232e8625af00010e787da"
"2724",9,0,5,"disaronno",29.99,FALSE,"F5-4",NA,NA,"5de232e8625af00010e787da"
"2725",9,0,6,"high_mountains",3.99,FALSE,"F5-4",NA,NA,"5de232e8625af00010e787da"
"2726",9,0,7,"baileys_700ml",11.99,TRUE,"F5-4",2128,NA,"5de232e8625af00010e787da"
"2727",9,0,8,"12_ouzo_reg",8.99,FALSE,"F5-4",NA,NA,"5de232e8625af00010e787da"
"2728",9,0,9,"ramazzotti",11.99,FALSE,"F5-4",NA,NA,"5de232e8625af00010e787da"
"2729",0,0,0,"12_ouzo_reg",10.99,FALSE,"F6-fill_1",NA,NA,"5de232cd625af00010e787c8"
"2730",0,0,1,"blanchet_white",6.99,FALSE,"F6-fill_1",NA,NA,"5de232cd625af00010e787c8"
"2731",0,0,2,"gordons_export_large",14.99,FALSE,"F6-fill_1",NA,21.99,"5de232cd625af00010e787c8"
"2732",0,0,3,"smirnoff_de",12.99,FALSE,"F6-fill_1",NA,NA,"5de232cd625af00010e787c8"
"2733",0,0,4,"malibu",12.99,FALSE,"F6-fill_1",NA,NA,"5de232cd625af00010e787c8"
"2734",0,0,5,"blanchet_red",6.99,FALSE,"F6-fill_1",NA,NA,"5de232cd625af00010e787c8"
"2735",0,0,6,"lillet",12.99,FALSE,"F6-fill_1",NA,14.99,"5de232cd625af00010e787c8"
"2736",0,0,7,"rotkappchen",4.99,FALSE,"F6-fill_1",NA,NA,"5de232cd625af00010e787c8"
"2737",0,0,8,"gordons_export",11.99,TRUE,"F6-fill_1",15952,NA,"5de232cd625af00010e787c8"
"2738",1,0,0,"lillet",12.99,FALSE,"F5-fill_5",NA,NA,"5de232cd625af00010e787c8"
"2739",1,0,1,"12_ouzo_reg",10.99,FALSE,"F5-fill_5",NA,NA,"5de232cd625af00010e787c8"
"2740",1,0,2,"blanchet_red",6.99,FALSE,"F5-fill_5",NA,9.99,"5de232cd625af00010e787c8"
"2741",1,0,3,"gordons_export_large",14.99,FALSE,"F5-fill_5",NA,NA,"5de232cd625af00010e787c8"
"2742",1,0,4,"blanchet_white",6.99,FALSE,"F5-fill_5",NA,NA,"5de232cd625af00010e787c8"
"2743",1,0,5,"gordons_export",11.99,FALSE,"F5-fill_5",NA,NA,"5de232cd625af00010e787c8"
"2744",1,0,6,"smirnoff_de",12.99,FALSE,"F5-fill_5",NA,NA,"5de232cd625af00010e787c8"
"2745",1,0,7,"rotkappchen",4.99,TRUE,"F5-fill_5",2591,NA,"5de232cd625af00010e787c8"
"2746",1,0,8,"malibu",12.99,FALSE,"F5-fill_5",NA,NA,"5de232cd625af00010e787c8"
"2747",2,0,0,"smirnoff_de",12.99,FALSE,"F6-fill_5",NA,19.99,"5de232cd625af00010e787c8"
"2748",2,0,1,"rotkappchen",4.99,FALSE,"F6-fill_5",NA,NA,"5de232cd625af00010e787c8"
"2749",2,0,2,"malibu",12.99,FALSE,"F6-fill_5",NA,16.99,"5de232cd625af00010e787c8"
"2750",2,0,3,"blanchet_white",6.99,FALSE,"F6-fill_5",NA,NA,"5de232cd625af00010e787c8"
"2751",2,0,4,"blanchet_red",6.99,FALSE,"F6-fill_5",NA,NA,"5de232cd625af00010e787c8"
"2752",2,0,5,"gordons_export_large",14.99,FALSE,"F6-fill_5",NA,17.99,"5de232cd625af00010e787c8"
"2753",2,0,6,"gordons_export",11.99,TRUE,"F6-fill_5",928,NA,"5de232cd625af00010e787c8"
"2754",2,0,7,"lillet",12.99,FALSE,"F6-fill_5",NA,NA,"5de232cd625af00010e787c8"
"2755",2,0,8,"12_ouzo_reg",10.99,FALSE,"F6-fill_5",NA,NA,"5de232cd625af00010e787c8"
"2756",3,0,0,"baileys_700ml",12.99,FALSE,"F6-5",NA,NA,"5de232cd625af00010e787c8"
"2757",3,0,1,"baileys_1000ml",13.99,FALSE,"F6-5",NA,18.99,"5de232cd625af00010e787c8"
"2758",3,0,2,"averna",14.99,FALSE,"F6-5",NA,NA,"5de232cd625af00010e787c8"
"2759",3,0,3,"ramazzotti",11.99,FALSE,"F6-5",NA,NA,"5de232cd625af00010e787c8"
"2760",3,0,4,"high_mountains",3.99,FALSE,"F6-5",NA,NA,"5de232cd625af00010e787c8"
"2761",3,0,5,"disaronno",29.99,TRUE,"F6-5",2136,NA,"5de232cd625af00010e787c8"
"2762",3,0,6,"kronenhof_advocaat",3.99,FALSE,"F6-5",NA,NA,"5de232cd625af00010e787c8"
"2763",3,0,7,"licor_43",11.99,FALSE,"F6-5",NA,NA,"5de232cd625af00010e787c8"
"2764",3,0,8,"jagermeister",13.99,FALSE,"F6-5",NA,NA,"5de232cd625af00010e787c8"
"2765",3,0,9,"amarula",11.99,FALSE,"F6-5",NA,NA,"5de232cd625af00010e787c8"
"2766",3,0,10,"12_ouzo_reg",8.99,FALSE,"F6-5",NA,NA,"5de232cd625af00010e787c8"
"2767",4,0,0,"jagermeister",13.99,FALSE,"F6-2",NA,NA,"5de232cd625af00010e787c8"
"2768",4,0,1,"high_mountains",3.99,TRUE,"F6-2",1280,NA,"5de232cd625af00010e787c8"
"2769",4,0,2,"licor_43",11.99,FALSE,"F6-2",NA,NA,"5de232cd625af00010e787c8"
"2770",4,0,3,"disaronno",29.99,FALSE,"F6-2",NA,NA,"5de232cd625af00010e787c8"
"2771",4,0,4,"kronenhof_advocaat",3.99,FALSE,"F6-2",NA,NA,"5de232cd625af00010e787c8"
"2772",4,0,5,"averna",14.99,FALSE,"F6-2",NA,NA,"5de232cd625af00010e787c8"
"2773",4,0,6,"baileys_700ml",12.99,FALSE,"F6-2",NA,NA,"5de232cd625af00010e787c8"
"2774",4,0,7,"12_ouzo_reg",8.99,FALSE,"F6-2",NA,NA,"5de232cd625af00010e787c8"
"2775",4,0,8,"amarula",11.99,FALSE,"F6-2",NA,NA,"5de232cd625af00010e787c8"
"2776",4,0,9,"baileys_1000ml",16.99,FALSE,"F6-2",NA,18.99,"5de232cd625af00010e787c8"
"2777",4,0,10,"ramazzotti",11.99,FALSE,"F6-2",NA,NA,"5de232cd625af00010e787c8"
"2778",5,0,0,"ramazzotti",11.99,TRUE,"F6-1",3039,NA,"5de232cd625af00010e787c8"
"2779",5,0,1,"averna",14.99,FALSE,"F6-1",NA,NA,"5de232cd625af00010e787c8"
"2780",5,0,2,"disaronno",29.99,FALSE,"F6-1",NA,NA,"5de232cd625af00010e787c8"
"2781",5,0,3,"baileys_1000ml",17.99,FALSE,"F6-1",NA,18.99,"5de232cd625af00010e787c8"
"2782",5,0,4,"12_ouzo_reg",8.99,FALSE,"F6-1",NA,NA,"5de232cd625af00010e787c8"
"2783",5,0,5,"licor_43",11.99,FALSE,"F6-1",NA,NA,"5de232cd625af00010e787c8"
"2784",5,0,6,"amarula",11.99,FALSE,"F6-1",NA,NA,"5de232cd625af00010e787c8"
"2785",5,0,7,"high_mountains",3.99,FALSE,"F6-1",NA,NA,"5de232cd625af00010e787c8"
"2786",5,0,8,"kronenhof_advocaat",3.99,FALSE,"F6-1",NA,NA,"5de232cd625af00010e787c8"
"2787",5,0,9,"baileys_700ml",12.99,FALSE,"F6-1",NA,NA,"5de232cd625af00010e787c8"
"2788",5,0,10,"jagermeister",13.99,FALSE,"F6-1",NA,NA,"5de232cd625af00010e787c8"
"2789",6,0,0,"12_ouzo_reg",10.99,FALSE,"F5-fill_3",NA,18.99,"5de232cd625af00010e787c8"
"2790",6,0,1,"blanchet_white",6.99,FALSE,"F5-fill_3",NA,9.99,"5de232cd625af00010e787c8"
"2791",6,0,2,"lillet",12.99,TRUE,"F5-fill_3",2459,NA,"5de232cd625af00010e787c8"
"2792",6,0,3,"rotkappchen",4.99,FALSE,"F5-fill_3",NA,NA,"5de232cd625af00010e787c8"
"2793",6,0,4,"smirnoff_de",12.99,FALSE,"F5-fill_3",NA,NA,"5de232cd625af00010e787c8"
"2794",6,0,5,"malibu",12.99,FALSE,"F5-fill_3",NA,NA,"5de232cd625af00010e787c8"
"2795",6,0,6,"gordons_export",11.99,FALSE,"F5-fill_3",NA,17.99,"5de232cd625af00010e787c8"
"2796",6,0,7,"gordons_export_large",14.99,FALSE,"F5-fill_3",NA,18.99,"5de232cd625af00010e787c8"
"2797",6,0,8,"blanchet_red",6.99,FALSE,"F5-fill_3",NA,NA,"5de232cd625af00010e787c8"
"2798",7,0,0,"12_ouzo_reg",8.99,FALSE,"F5-3",NA,NA,"5de232cd625af00010e787c8"
"2799",7,0,1,"amarula",11.99,FALSE,"F5-3",NA,NA,"5de232cd625af00010e787c8"
"2800",7,0,2,"ramazzotti",11.99,FALSE,"F5-3",NA,NA,"5de232cd625af00010e787c8"
"2801",7,0,3,"disaronno",29.99,TRUE,"F5-3",865,NA,"5de232cd625af00010e787c8"
"2802",7,0,4,"averna",14.99,FALSE,"F5-3",NA,NA,"5de232cd625af00010e787c8"
"2803",7,0,5,"baileys_700ml",12.99,FALSE,"F5-3",NA,NA,"5de232cd625af00010e787c8"
"2804",7,0,6,"high_mountains",3.99,FALSE,"F5-3",NA,NA,"5de232cd625af00010e787c8"
"2805",7,0,7,"licor_43",11.99,FALSE,"F5-3",NA,NA,"5de232cd625af00010e787c8"
"2806",7,0,8,"jagermeister",13.99,FALSE,"F5-3",NA,NA,"5de232cd625af00010e787c8"
"2807",7,0,9,"kronenhof_advocaat",3.99,FALSE,"F5-3",NA,NA,"5de232cd625af00010e787c8"
"2808",8,0,0,"malibu",12.99,FALSE,"F6-fill_2",NA,NA,"5de232cd625af00010e787c8"
"2809",8,0,1,"lillet",12.99,FALSE,"F6-fill_2",NA,NA,"5de232cd625af00010e787c8"
"2810",8,0,2,"12_ouzo_reg",10.99,FALSE,"F6-fill_2",NA,13.99,"5de232cd625af00010e787c8"
"2811",8,0,3,"blanchet_white",6.99,FALSE,"F6-fill_2",NA,NA,"5de232cd625af00010e787c8"
"2812",8,0,4,"gordons_export_large",14.99,FALSE,"F6-fill_2",NA,NA,"5de232cd625af00010e787c8"
"2813",8,0,5,"smirnoff_de",12.99,FALSE,"F6-fill_2",NA,19.99,"5de232cd625af00010e787c8"
"2814",8,0,6,"rotkappchen",4.99,FALSE,"F6-fill_2",NA,NA,"5de232cd625af00010e787c8"
"2815",8,0,7,"blanchet_red",6.99,TRUE,"F6-fill_2",1274,NA,"5de232cd625af00010e787c8"
"2816",8,0,8,"gordons_export",11.99,FALSE,"F6-fill_2",NA,12.99,"5de232cd625af00010e787c8"
"2817",9,0,0,"high_mountains",3.99,FALSE,"F5-4",NA,NA,"5de232cd625af00010e787c8"
"2818",9,0,1,"kronenhof_advocaat",3.99,TRUE,"F5-4",3310,NA,"5de232cd625af00010e787c8"
"2819",9,0,2,"disaronno",29.99,FALSE,"F5-4",NA,NA,"5de232cd625af00010e787c8"
"2820",9,0,3,"licor_43",11.99,FALSE,"F5-4",NA,NA,"5de232cd625af00010e787c8"
"2821",9,0,4,"jagermeister",13.99,FALSE,"F5-4",NA,NA,"5de232cd625af00010e787c8"
"2822",9,0,5,"amarula",11.99,FALSE,"F5-4",NA,NA,"5de232cd625af00010e787c8"
"2823",9,0,6,"12_ouzo_reg",8.99,FALSE,"F5-4",NA,NA,"5de232cd625af00010e787c8"
"2824",9,0,7,"averna",14.99,FALSE,"F5-4",NA,NA,"5de232cd625af00010e787c8"
"2825",9,0,8,"baileys_700ml",11.99,FALSE,"F5-4",NA,NA,"5de232cd625af00010e787c8"
"2826",9,0,9,"ramazzotti",11.99,FALSE,"F5-4",NA,NA,"5de232cd625af00010e787c8"
"2827",0,0,0,"lillet",12.99,FALSE,"F5-fill_1",NA,16.99,"5de2333e625af00010e78862"
"2828",0,0,1,"gordons_export",11.99,FALSE,"F5-fill_1",NA,NA,"5de2333e625af00010e78862"
"2829",0,0,2,"12_ouzo_reg",10.99,FALSE,"F5-fill_1",NA,16.99,"5de2333e625af00010e78862"
"2830",0,0,3,"blanchet_white",6.99,FALSE,"F5-fill_1",NA,9.99,"5de2333e625af00010e78862"
"2831",0,0,4,"smirnoff_de",12.99,FALSE,"F5-fill_1",NA,NA,"5de2333e625af00010e78862"
"2832",0,0,5,"blanchet_red",6.99,FALSE,"F5-fill_1",NA,13.99,"5de2333e625af00010e78862"
"2833",0,0,6,"rotkappchen",4.99,TRUE,"F5-fill_1",9416,NA,"5de2333e625af00010e78862"
"2834",0,0,7,"gordons_export_large",14.99,FALSE,"F5-fill_1",NA,NA,"5de2333e625af00010e78862"
"2835",0,0,8,"malibu",12.99,FALSE,"F5-fill_1",NA,NA,"5de2333e625af00010e78862"
"2836",1,0,0,"lillet",12.99,FALSE,"F6-fill_3",NA,15.99,"5de2333e625af00010e78862"
"2837",1,0,1,"smirnoff_de",12.99,FALSE,"F6-fill_3",NA,NA,"5de2333e625af00010e78862"
"2838",1,0,2,"rotkappchen",4.99,FALSE,"F6-fill_3",NA,NA,"5de2333e625af00010e78862"
"2839",1,0,3,"gordons_export_large",14.99,FALSE,"F6-fill_3",NA,NA,"5de2333e625af00010e78862"
"2840",1,0,4,"malibu",12.99,FALSE,"F6-fill_3",NA,NA,"5de2333e625af00010e78862"
"2841",1,0,5,"blanchet_red",6.99,FALSE,"F6-fill_3",NA,NA,"5de2333e625af00010e78862"
"2842",1,0,6,"blanchet_white",6.99,FALSE,"F6-fill_3",NA,NA,"5de2333e625af00010e78862"
"2843",1,0,7,"gordons_export",11.99,FALSE,"F6-fill_3",NA,NA,"5de2333e625af00010e78862"
"2844",1,0,8,"12_ouzo_reg",10.99,TRUE,"F6-fill_3",5235,NA,"5de2333e625af00010e78862"
"2845",2,0,0,"amarula",11.99,FALSE,"F5-4",NA,NA,"5de2333e625af00010e78862"
"2846",2,0,1,"disaronno",29.99,FALSE,"F5-4",NA,NA,"5de2333e625af00010e78862"
"2847",2,0,2,"jagermeister",13.99,TRUE,"F5-4",2829,NA,"5de2333e625af00010e78862"
"2848",2,0,3,"12_ouzo_reg",8.99,FALSE,"F5-4",NA,NA,"5de2333e625af00010e78862"
"2849",2,0,4,"averna",14.99,FALSE,"F5-4",NA,NA,"5de2333e625af00010e78862"
"2850",2,0,5,"kronenhof_advocaat",3.99,FALSE,"F5-4",NA,NA,"5de2333e625af00010e78862"
"2851",2,0,6,"ramazzotti",11.99,FALSE,"F5-4",NA,NA,"5de2333e625af00010e78862"
"2852",2,0,7,"baileys_700ml",11.99,FALSE,"F5-4",NA,NA,"5de2333e625af00010e78862"
"2853",2,0,8,"licor_43",11.99,FALSE,"F5-4",NA,NA,"5de2333e625af00010e78862"
"2854",2,0,9,"high_mountains",3.99,FALSE,"F5-4",NA,NA,"5de2333e625af00010e78862"
"2855",3,0,0,"averna",14.99,FALSE,"F6-3",NA,NA,"5de2333e625af00010e78862"
"2856",3,0,1,"baileys_1000ml",15.99,FALSE,"F6-3",NA,18.99,"5de2333e625af00010e78862"
"2857",3,0,2,"disaronno",29.99,FALSE,"F6-3",NA,NA,"5de2333e625af00010e78862"
"2858",3,0,3,"ramazzotti",11.99,TRUE,"F6-3",6796,NA,"5de2333e625af00010e78862"
"2859",3,0,4,"amarula",11.99,FALSE,"F6-3",NA,NA,"5de2333e625af00010e78862"
"2860",3,0,5,"high_mountains",3.99,FALSE,"F6-3",NA,NA,"5de2333e625af00010e78862"
"2861",3,0,6,"12_ouzo_reg",8.99,FALSE,"F6-3",NA,NA,"5de2333e625af00010e78862"
"2862",3,0,7,"jagermeister",13.99,FALSE,"F6-3",NA,NA,"5de2333e625af00010e78862"
"2863",3,0,8,"kronenhof_advocaat",3.99,FALSE,"F6-3",NA,NA,"5de2333e625af00010e78862"
"2864",3,0,9,"baileys_700ml",12.99,FALSE,"F6-3",NA,NA,"5de2333e625af00010e78862"
"2865",3,0,10,"licor_43",11.99,FALSE,"F6-3",NA,NA,"5de2333e625af00010e78862"
"2866",4,0,0,"blanchet_white",6.99,FALSE,"F5-fill_3",NA,9.99,"5de2333e625af00010e78862"
"2867",4,0,1,"lillet",12.99,FALSE,"F5-fill_3",NA,NA,"5de2333e625af00010e78862"
"2868",4,0,2,"rotkappchen",4.99,TRUE,"F5-fill_3",8349,NA,"5de2333e625af00010e78862"
"2869",4,0,3,"smirnoff_de",12.99,FALSE,"F5-fill_3",NA,NA,"5de2333e625af00010e78862"
"2870",4,0,4,"gordons_export_large",14.99,FALSE,"F5-fill_3",NA,18.99,"5de2333e625af00010e78862"
"2871",4,0,5,"gordons_export",11.99,FALSE,"F5-fill_3",NA,17.99,"5de2333e625af00010e78862"
"2872",4,0,6,"blanchet_red",6.99,FALSE,"F5-fill_3",NA,NA,"5de2333e625af00010e78862"
"2873",4,0,7,"malibu",12.99,FALSE,"F5-fill_3",NA,NA,"5de2333e625af00010e78862"
"2874",4,0,8,"12_ouzo_reg",10.99,FALSE,"F5-fill_3",NA,18.99,"5de2333e625af00010e78862"
"2875",5,0,0,"averna",14.99,FALSE,"F5-2",NA,NA,"5de2333e625af00010e78862"
"2876",5,0,1,"amarula",11.99,FALSE,"F5-2",NA,NA,"5de2333e625af00010e78862"
"2877",5,0,2,"kronenhof_advocaat",3.99,FALSE,"F5-2",NA,NA,"5de2333e625af00010e78862"
"2878",5,0,3,"baileys_700ml",13.99,FALSE,"F5-2",NA,NA,"5de2333e625af00010e78862"
"2879",5,0,4,"jagermeister",13.99,TRUE,"F5-2",5348,NA,"5de2333e625af00010e78862"
"2880",5,0,5,"high_mountains",3.99,FALSE,"F5-2",NA,NA,"5de2333e625af00010e78862"
"2881",5,0,6,"disaronno",29.99,FALSE,"F5-2",NA,NA,"5de2333e625af00010e78862"
"2882",5,0,7,"licor_43",11.99,FALSE,"F5-2",NA,NA,"5de2333e625af00010e78862"
"2883",5,0,8,"12_ouzo_reg",8.99,FALSE,"F5-2",NA,NA,"5de2333e625af00010e78862"
"2884",5,0,9,"ramazzotti",11.99,FALSE,"F5-2",NA,NA,"5de2333e625af00010e78862"
"2885",6,0,0,"kronenhof_advocaat",3.99,FALSE,"F6-4",NA,NA,"5de2333e625af00010e78862"
"2886",6,0,1,"disaronno",29.99,FALSE,"F6-4",NA,NA,"5de2333e625af00010e78862"
"2887",6,0,2,"12_ouzo_reg",8.99,TRUE,"F6-4",7611,NA,"5de2333e625af00010e78862"
"2888",6,0,3,"amarula",11.99,FALSE,"F6-4",NA,NA,"5de2333e625af00010e78862"
"2889",6,0,4,"ramazzotti",11.99,FALSE,"F6-4",NA,NA,"5de2333e625af00010e78862"
"2890",6,0,5,"licor_43",11.99,FALSE,"F6-4",NA,NA,"5de2333e625af00010e78862"
"2891",6,0,6,"averna",14.99,FALSE,"F6-4",NA,NA,"5de2333e625af00010e78862"
"2892",6,0,7,"baileys_1000ml",14.99,FALSE,"F6-4",NA,18.99,"5de2333e625af00010e78862"
"2893",6,0,8,"jagermeister",13.99,FALSE,"F6-4",NA,NA,"5de2333e625af00010e78862"
"2894",6,0,9,"high_mountains",3.99,FALSE,"F6-4",NA,NA,"5de2333e625af00010e78862"
"2895",6,0,10,"baileys_700ml",12.99,FALSE,"F6-4",NA,NA,"5de2333e625af00010e78862"
"2896",7,0,0,"averna",14.99,FALSE,"F5-5",NA,NA,"5de2333e625af00010e78862"
"2897",7,0,1,"disaronno",29.99,FALSE,"F5-5",NA,NA,"5de2333e625af00010e78862"
"2898",7,0,2,"jagermeister",13.99,FALSE,"F5-5",NA,NA,"5de2333e625af00010e78862"
"2899",7,0,3,"kronenhof_advocaat",3.99,FALSE,"F5-5",NA,NA,"5de2333e625af00010e78862"
"2900",7,0,4,"high_mountains",3.99,FALSE,"F5-5",NA,NA,"5de2333e625af00010e78862"
"2901",7,0,5,"ramazzotti",11.99,FALSE,"F5-5",NA,NA,"5de2333e625af00010e78862"
"2902",7,0,6,"12_ouzo_reg",8.99,TRUE,"F5-5",4098,NA,"5de2333e625af00010e78862"
"2903",7,0,7,"licor_43",11.99,FALSE,"F5-5",NA,NA,"5de2333e625af00010e78862"
"2904",7,0,8,"amarula",11.99,FALSE,"F5-5",NA,NA,"5de2333e625af00010e78862"
"2905",7,0,9,"baileys_700ml",10.99,FALSE,"F5-5",NA,NA,"5de2333e625af00010e78862"
"2906",8,0,0,"lillet",12.99,FALSE,"F6-fill_1",NA,14.99,"5de2333e625af00010e78862"
"2907",8,0,1,"blanchet_white",6.99,FALSE,"F6-fill_1",NA,NA,"5de2333e625af00010e78862"
"2908",8,0,2,"gordons_export",11.99,FALSE,"F6-fill_1",NA,NA,"5de2333e625af00010e78862"
"2909",8,0,3,"gordons_export_large",14.99,FALSE,"F6-fill_1",NA,21.99,"5de2333e625af00010e78862"
"2910",8,0,4,"smirnoff_de",12.99,FALSE,"F6-fill_1",NA,NA,"5de2333e625af00010e78862"
"2911",8,0,5,"12_ouzo_reg",10.99,FALSE,"F6-fill_1",NA,NA,"5de2333e625af00010e78862"
"2912",8,0,6,"blanchet_red",6.99,FALSE,"F6-fill_1",NA,NA,"5de2333e625af00010e78862"
"2913",8,0,7,"malibu",12.99,FALSE,"F6-fill_1",NA,NA,"5de2333e625af00010e78862"
"2914",8,0,8,"rotkappchen",4.99,TRUE,"F6-fill_1",8795,NA,"5de2333e625af00010e78862"
"2915",9,0,0,"averna",14.99,FALSE,"F5-3",NA,NA,"5de2333e625af00010e78862"
"2916",9,0,1,"licor_43",11.99,FALSE,"F5-3",NA,NA,"5de2333e625af00010e78862"
"2917",9,0,2,"kronenhof_advocaat",3.99,FALSE,"F5-3",NA,NA,"5de2333e625af00010e78862"
"2918",9,0,3,"ramazzotti",11.99,FALSE,"F5-3",NA,NA,"5de2333e625af00010e78862"
"2919",9,0,4,"12_ouzo_reg",8.99,TRUE,"F5-3",5579,NA,"5de2333e625af00010e78862"
"2920",9,0,5,"amarula",11.99,FALSE,"F5-3",NA,NA,"5de2333e625af00010e78862"
"2921",9,0,6,"disaronno",29.99,FALSE,"F5-3",NA,NA,"5de2333e625af00010e78862"
"2922",9,0,7,"jagermeister",13.99,FALSE,"F5-3",NA,NA,"5de2333e625af00010e78862"
"2923",9,0,8,"baileys_700ml",12.99,FALSE,"F5-3",NA,NA,"5de2333e625af00010e78862"
"2924",9,0,9,"high_mountains",3.99,FALSE,"F5-3",NA,NA,"5de2333e625af00010e78862"
"3022",0,0,0,"blanchet_red",6.99,FALSE,"F6-fill_5",NA,NA,"5de23327625af00010e78846"
"3023",0,0,1,"12_ouzo_reg",10.99,FALSE,"F6-fill_5",NA,NA,"5de23327625af00010e78846"
"3024",0,0,2,"gordons_export_large",14.99,FALSE,"F6-fill_5",NA,17.99,"5de23327625af00010e78846"
"3025",0,0,3,"gordons_export",11.99,FALSE,"F6-fill_5",NA,NA,"5de23327625af00010e78846"
"3026",0,0,4,"lillet",12.99,FALSE,"F6-fill_5",NA,NA,"5de23327625af00010e78846"
"3027",0,0,5,"blanchet_white",6.99,FALSE,"F6-fill_5",NA,NA,"5de23327625af00010e78846"
"3028",0,0,6,"malibu",12.99,FALSE,"F6-fill_5",NA,16.99,"5de23327625af00010e78846"
"3029",0,0,7,"smirnoff_de",12.99,FALSE,"F6-fill_5",NA,19.99,"5de23327625af00010e78846"
"3030",0,0,8,"rotkappchen",4.99,TRUE,"F6-fill_5",26358,NA,"5de23327625af00010e78846"
"3031",1,0,0,"lillet",12.99,FALSE,"F5-fill_1",NA,16.99,"5de23327625af00010e78846"
"3032",1,0,1,"rotkappchen",4.99,FALSE,"F5-fill_1",NA,NA,"5de23327625af00010e78846"
"3033",1,0,2,"smirnoff_de",12.99,FALSE,"F5-fill_1",NA,NA,"5de23327625af00010e78846"
"3034",1,0,3,"gordons_export_large",14.99,FALSE,"F5-fill_1",NA,NA,"5de23327625af00010e78846"
"3035",1,0,4,"12_ouzo_reg",10.99,FALSE,"F5-fill_1",NA,16.99,"5de23327625af00010e78846"
"3036",1,0,5,"malibu",12.99,TRUE,"F5-fill_1",8526,NA,"5de23327625af00010e78846"
"3037",1,0,6,"blanchet_white",6.99,FALSE,"F5-fill_1",NA,9.99,"5de23327625af00010e78846"
"3038",1,0,7,"gordons_export",11.99,FALSE,"F5-fill_1",NA,NA,"5de23327625af00010e78846"
"3039",1,0,8,"blanchet_red",6.99,FALSE,"F5-fill_1",NA,13.99,"5de23327625af00010e78846"
"3040",2,0,0,"rotkappchen",4.99,TRUE,"F6-fill_2",11361,NA,"5de23327625af00010e78846"
"3041",2,0,1,"blanchet_white",6.99,FALSE,"F6-fill_2",NA,NA,"5de23327625af00010e78846"
"3042",2,0,2,"smirnoff_de",12.99,FALSE,"F6-fill_2",NA,19.99,"5de23327625af00010e78846"
"3043",2,0,3,"blanchet_red",6.99,FALSE,"F6-fill_2",NA,NA,"5de23327625af00010e78846"
"3044",2,0,4,"12_ouzo_reg",10.99,FALSE,"F6-fill_2",NA,13.99,"5de23327625af00010e78846"
"3045",2,0,5,"gordons_export",11.99,FALSE,"F6-fill_2",NA,12.99,"5de23327625af00010e78846"
"3046",2,0,6,"malibu",12.99,FALSE,"F6-fill_2",NA,NA,"5de23327625af00010e78846"
"3047",2,0,7,"lillet",12.99,FALSE,"F6-fill_2",NA,NA,"5de23327625af00010e78846"
"3048",2,0,8,"gordons_export_large",14.99,FALSE,"F6-fill_2",NA,NA,"5de23327625af00010e78846"
"3049",3,0,0,"baileys_1000ml",15.99,TRUE,"F6-3",14571,18.99,"5de23327625af00010e78846"
"3050",3,0,1,"amarula",11.99,FALSE,"F6-3",NA,NA,"5de23327625af00010e78846"
"3051",3,0,2,"12_ouzo_reg",8.99,FALSE,"F6-3",NA,NA,"5de23327625af00010e78846"
"3052",3,0,3,"kronenhof_advocaat",3.99,FALSE,"F6-3",NA,NA,"5de23327625af00010e78846"
"3053",3,0,4,"baileys_700ml",12.99,FALSE,"F6-3",NA,NA,"5de23327625af00010e78846"
"3054",3,0,5,"jagermeister",13.99,FALSE,"F6-3",NA,NA,"5de23327625af00010e78846"
"3055",3,0,6,"disaronno",29.99,FALSE,"F6-3",NA,NA,"5de23327625af00010e78846"
"3056",3,0,7,"high_mountains",3.99,FALSE,"F6-3",NA,NA,"5de23327625af00010e78846"
"3057",3,0,8,"licor_43",11.99,FALSE,"F6-3",NA,NA,"5de23327625af00010e78846"
"3058",3,0,9,"averna",14.99,FALSE,"F6-3",NA,NA,"5de23327625af00010e78846"
"3059",3,0,10,"ramazzotti",11.99,FALSE,"F6-3",NA,NA,"5de23327625af00010e78846"
"3060",4,0,0,"baileys_1000ml",14.99,FALSE,"F6-4",NA,18.99,"5de23327625af00010e78846"
"3061",4,0,1,"12_ouzo_reg",8.99,FALSE,"F6-4",NA,NA,"5de23327625af00010e78846"
"3062",4,0,2,"averna",14.99,FALSE,"F6-4",NA,NA,"5de23327625af00010e78846"
"3063",4,0,3,"disaronno",29.99,FALSE,"F6-4",NA,NA,"5de23327625af00010e78846"
"3064",4,0,4,"baileys_700ml",12.99,FALSE,"F6-4",NA,NA,"5de23327625af00010e78846"
"3065",4,0,5,"high_mountains",3.99,FALSE,"F6-4",NA,NA,"5de23327625af00010e78846"
"3066",4,0,6,"kronenhof_advocaat",3.99,FALSE,"F6-4",NA,NA,"5de23327625af00010e78846"
"3067",4,0,7,"licor_43",11.99,FALSE,"F6-4",NA,NA,"5de23327625af00010e78846"
"3068",4,0,8,"jagermeister",13.99,FALSE,"F6-4",NA,NA,"5de23327625af00010e78846"
"3069",4,0,9,"ramazzotti",11.99,FALSE,"F6-4",NA,NA,"5de23327625af00010e78846"
"3070",4,0,10,"amarula",11.99,TRUE,"F6-4",11320,NA,"5de23327625af00010e78846"
"3071",5,0,0,"smirnoff_de",12.99,FALSE,"F6-fill_1",NA,NA,"5de23327625af00010e78846"
"3072",5,0,1,"lillet",12.99,FALSE,"F6-fill_1",NA,14.99,"5de23327625af00010e78846"
"3073",5,0,2,"gordons_export",11.99,FALSE,"F6-fill_1",NA,NA,"5de23327625af00010e78846"
"3074",5,0,3,"blanchet_white",6.99,FALSE,"F6-fill_1",NA,NA,"5de23327625af00010e78846"
"3075",5,0,4,"malibu",12.99,FALSE,"F6-fill_1",NA,NA,"5de23327625af00010e78846"
"3076",5,0,5,"gordons_export_large",14.99,FALSE,"F6-fill_1",NA,21.99,"5de23327625af00010e78846"
"3077",5,0,6,"rotkappchen",4.99,TRUE,"F6-fill_1",3444,NA,"5de23327625af00010e78846"
"3078",5,0,7,"blanchet_red",6.99,FALSE,"F6-fill_1",NA,NA,"5de23327625af00010e78846"
"3079",5,0,8,"12_ouzo_reg",10.99,FALSE,"F6-fill_1",NA,NA,"5de23327625af00010e78846"
"3080",6,0,0,"kronenhof_advocaat",3.99,FALSE,"F5-5",NA,NA,"5de23327625af00010e78846"
"3081",6,0,1,"averna",14.99,FALSE,"F5-5",NA,NA,"5de23327625af00010e78846"
"3082",6,0,2,"disaronno",29.99,FALSE,"F5-5",NA,NA,"5de23327625af00010e78846"
"3083",6,0,3,"amarula",11.99,FALSE,"F5-5",NA,NA,"5de23327625af00010e78846"
"3084",6,0,4,"baileys_700ml",10.99,TRUE,"F5-5",8055,NA,"5de23327625af00010e78846"
"3085",6,0,5,"jagermeister",13.99,FALSE,"F5-5",NA,NA,"5de23327625af00010e78846"
"3086",6,0,6,"12_ouzo_reg",8.99,FALSE,"F5-5",NA,NA,"5de23327625af00010e78846"
"3087",6,0,7,"ramazzotti",11.99,FALSE,"F5-5",NA,NA,"5de23327625af00010e78846"
"3088",6,0,8,"licor_43",11.99,FALSE,"F5-5",NA,NA,"5de23327625af00010e78846"
"3089",6,0,9,"high_mountains",3.99,FALSE,"F5-5",NA,NA,"5de23327625af00010e78846"
"3090",7,0,0,"lillet",12.99,FALSE,"F5-fill_3",NA,NA,"5de23327625af00010e78846"
"3091",7,0,1,"gordons_export_large",14.99,FALSE,"F5-fill_3",NA,18.99,"5de23327625af00010e78846"
"3092",7,0,2,"blanchet_white",6.99,FALSE,"F5-fill_3",NA,9.99,"5de23327625af00010e78846"
"3093",7,0,3,"rotkappchen",4.99,FALSE,"F5-fill_3",NA,NA,"5de23327625af00010e78846"
"3094",7,0,4,"blanchet_red",6.99,FALSE,"F5-fill_3",NA,NA,"5de23327625af00010e78846"
"3095",7,0,5,"gordons_export",11.99,FALSE,"F5-fill_3",NA,17.99,"5de23327625af00010e78846"
"3096",7,0,6,"12_ouzo_reg",10.99,FALSE,"F5-fill_3",NA,18.99,"5de23327625af00010e78846"
"3097",7,0,7,"smirnoff_de",12.99,FALSE,"F5-fill_3",NA,NA,"5de23327625af00010e78846"
"3098",7,0,8,"malibu",12.99,TRUE,"F5-fill_3",4219,NA,"5de23327625af00010e78846"
"3099",8,0,0,"gordons_export_large",14.99,FALSE,"F5-fill_4",NA,NA,"5de23327625af00010e78846"
"3100",8,0,1,"smirnoff_de",12.99,FALSE,"F5-fill_4",NA,19.99,"5de23327625af00010e78846"
"3101",8,0,2,"malibu",12.99,FALSE,"F5-fill_4",NA,NA,"5de23327625af00010e78846"
"3102",8,0,3,"gordons_export",11.99,FALSE,"F5-fill_4",NA,NA,"5de23327625af00010e78846"
"3103",8,0,4,"blanchet_red",6.99,FALSE,"F5-fill_4",NA,NA,"5de23327625af00010e78846"
"3104",8,0,5,"rotkappchen",4.99,TRUE,"F5-fill_4",6096,NA,"5de23327625af00010e78846"
"3105",8,0,6,"lillet",12.99,FALSE,"F5-fill_4",NA,NA,"5de23327625af00010e78846"
"3106",8,0,7,"blanchet_white",6.99,FALSE,"F5-fill_4",NA,NA,"5de23327625af00010e78846"
"3107",8,0,8,"12_ouzo_reg",10.99,FALSE,"F5-fill_4",NA,NA,"5de23327625af00010e78846"
"3108",9,0,0,"kronenhof_advocaat",3.99,FALSE,"F5-2",NA,NA,"5de23327625af00010e78846"
"3109",9,0,1,"ramazzotti",11.99,FALSE,"F5-2",NA,NA,"5de23327625af00010e78846"
"3110",9,0,2,"12_ouzo_reg",8.99,FALSE,"F5-2",NA,NA,"5de23327625af00010e78846"
"3111",9,0,3,"amarula",11.99,FALSE,"F5-2",NA,NA,"5de23327625af00010e78846"
"3112",9,0,4,"high_mountains",3.99,FALSE,"F5-2",NA,NA,"5de23327625af00010e78846"
"3113",9,0,5,"baileys_700ml",13.99,TRUE,"F5-2",10285,NA,"5de23327625af00010e78846"
"3114",9,0,6,"disaronno",29.99,FALSE,"F5-2",NA,NA,"5de23327625af00010e78846"
"3115",9,0,7,"licor_43",11.99,FALSE,"F5-2",NA,NA,"5de23327625af00010e78846"
"3116",9,0,8,"averna",14.99,FALSE,"F5-2",NA,NA,"5de23327625af00010e78846"
"3117",9,0,9,"jagermeister",13.99,FALSE,"F5-2",NA,NA,"5de23327625af00010e78846"
"3207",0,0,0,"ramazzotti",11.99,FALSE,"F5-3",NA,NA,"5de24745d521a00010b486e4"
"3208",0,0,1,"jagermeister",13.99,FALSE,"F5-3",NA,NA,"5de24745d521a00010b486e4"
"3209",0,0,2,"disaronno",29.99,FALSE,"F5-3",NA,NA,"5de24745d521a00010b486e4"
"3210",0,0,3,"12_ouzo_reg",8.99,FALSE,"F5-3",NA,NA,"5de24745d521a00010b486e4"
"3211",0,0,4,"high_mountains",3.99,TRUE,"F5-3",4440,NA,"5de24745d521a00010b486e4"
"3212",0,0,5,"amarula",11.99,FALSE,"F5-3",NA,NA,"5de24745d521a00010b486e4"
"3213",0,0,6,"averna",14.99,FALSE,"F5-3",NA,NA,"5de24745d521a00010b486e4"
"3214",0,0,7,"baileys_700ml",12.99,FALSE,"F5-3",NA,NA,"5de24745d521a00010b486e4"
"3215",0,0,8,"kronenhof_advocaat",3.99,FALSE,"F5-3",NA,NA,"5de24745d521a00010b486e4"
"3216",0,0,9,"licor_43",11.99,FALSE,"F5-3",NA,NA,"5de24745d521a00010b486e4"
"3217",1,0,0,"licor_43",11.99,FALSE,"F5-2",NA,NA,"5de24745d521a00010b486e4"
"3218",1,0,1,"kronenhof_advocaat",3.99,TRUE,"F5-2",5069,NA,"5de24745d521a00010b486e4"
"3219",1,0,2,"averna",14.99,FALSE,"F5-2",NA,NA,"5de24745d521a00010b486e4"
"3220",1,0,3,"disaronno",29.99,FALSE,"F5-2",NA,NA,"5de24745d521a00010b486e4"
"3221",1,0,4,"high_mountains",3.99,FALSE,"F5-2",NA,NA,"5de24745d521a00010b486e4"
"3222",1,0,5,"baileys_700ml",13.99,FALSE,"F5-2",NA,NA,"5de24745d521a00010b486e4"
"3223",1,0,6,"ramazzotti",11.99,FALSE,"F5-2",NA,NA,"5de24745d521a00010b486e4"
"3224",1,0,7,"amarula",11.99,FALSE,"F5-2",NA,NA,"5de24745d521a00010b486e4"
"3225",1,0,8,"jagermeister",13.99,FALSE,"F5-2",NA,NA,"5de24745d521a00010b486e4"
"3226",1,0,9,"12_ouzo_reg",8.99,FALSE,"F5-2",NA,NA,"5de24745d521a00010b486e4"
"3227",2,0,0,"rotkappchen",4.99,FALSE,"F5-fill_4",NA,NA,"5de24745d521a00010b486e4"
"3228",2,0,1,"12_ouzo_reg",10.99,FALSE,"F5-fill_4",NA,NA,"5de24745d521a00010b486e4"
"3229",2,0,2,"smirnoff_de",12.99,FALSE,"F5-fill_4",NA,19.99,"5de24745d521a00010b486e4"
"3230",2,0,3,"lillet",12.99,FALSE,"F5-fill_4",NA,NA,"5de24745d521a00010b486e4"
"3231",2,0,4,"gordons_export",11.99,FALSE,"F5-fill_4",NA,NA,"5de24745d521a00010b486e4"
"3232",2,0,5,"malibu",12.99,FALSE,"F5-fill_4",NA,NA,"5de24745d521a00010b486e4"
"3233",2,0,6,"gordons_export_large",14.99,FALSE,"F5-fill_4",NA,NA,"5de24745d521a00010b486e4"
"3234",2,0,7,"blanchet_white",6.99,FALSE,"F5-fill_4",NA,NA,"5de24745d521a00010b486e4"
"3235",2,0,8,"blanchet_red",6.99,TRUE,"F5-fill_4",12299,NA,"5de24745d521a00010b486e4"
"3236",3,0,0,"malibu",12.99,FALSE,"F5-fill_5",NA,NA,"5de24745d521a00010b486e4"
"3237",3,0,1,"blanchet_white",6.99,FALSE,"F5-fill_5",NA,NA,"5de24745d521a00010b486e4"
"3238",3,0,2,"rotkappchen",4.99,FALSE,"F5-fill_5",NA,NA,"5de24745d521a00010b486e4"
"3239",3,0,3,"blanchet_red",6.99,TRUE,"F5-fill_5",9077,9.99,"5de24745d521a00010b486e4"
"3240",3,0,4,"smirnoff_de",12.99,FALSE,"F5-fill_5",NA,NA,"5de24745d521a00010b486e4"
"3241",3,0,5,"gordons_export",11.99,FALSE,"F5-fill_5",NA,NA,"5de24745d521a00010b486e4"
"3242",3,0,6,"gordons_export_large",14.99,FALSE,"F5-fill_5",NA,NA,"5de24745d521a00010b486e4"
"3243",3,0,7,"lillet",12.99,FALSE,"F5-fill_5",NA,NA,"5de24745d521a00010b486e4"
"3244",3,0,8,"12_ouzo_reg",10.99,FALSE,"F5-fill_5",NA,NA,"5de24745d521a00010b486e4"
"3245",4,0,0,"ramazzotti",11.99,FALSE,"F6-4",NA,NA,"5de24745d521a00010b486e4"
"3246",4,0,1,"baileys_1000ml",14.99,FALSE,"F6-4",NA,18.99,"5de24745d521a00010b486e4"
"3247",4,0,2,"baileys_700ml",12.99,FALSE,"F6-4",NA,NA,"5de24745d521a00010b486e4"
"3248",4,0,3,"amarula",11.99,FALSE,"F6-4",NA,NA,"5de24745d521a00010b486e4"
"3249",4,0,4,"kronenhof_advocaat",3.99,TRUE,"F6-4",4847,NA,"5de24745d521a00010b486e4"
"3250",4,0,5,"licor_43",11.99,FALSE,"F6-4",NA,NA,"5de24745d521a00010b486e4"
"3251",4,0,6,"disaronno",29.99,FALSE,"F6-4",NA,NA,"5de24745d521a00010b486e4"
"3252",4,0,7,"high_mountains",3.99,FALSE,"F6-4",NA,NA,"5de24745d521a00010b486e4"
"3253",4,0,8,"averna",14.99,FALSE,"F6-4",NA,NA,"5de24745d521a00010b486e4"
"3254",4,0,9,"12_ouzo_reg",8.99,FALSE,"F6-4",NA,NA,"5de24745d521a00010b486e4"
"3255",4,0,10,"jagermeister",13.99,FALSE,"F6-4",NA,NA,"5de24745d521a00010b486e4"
"3256",5,0,0,"gordons_export_large",14.99,FALSE,"F5-fill_2",NA,NA,"5de24745d521a00010b486e4"
"3257",5,0,1,"malibu",12.99,FALSE,"F5-fill_2",NA,NA,"5de24745d521a00010b486e4"
"3258",5,0,2,"rotkappchen",4.99,FALSE,"F5-fill_2",NA,NA,"5de24745d521a00010b486e4"
"3259",5,0,3,"gordons_export",11.99,FALSE,"F5-fill_2",NA,17.99,"5de24745d521a00010b486e4"
"3260",5,0,4,"lillet",12.99,FALSE,"F5-fill_2",NA,NA,"5de24745d521a00010b486e4"
"3261",5,0,5,"blanchet_red",6.99,FALSE,"F5-fill_2",NA,NA,"5de24745d521a00010b486e4"
"3262",5,0,6,"blanchet_white",6.99,TRUE,"F5-fill_2",4024,NA,"5de24745d521a00010b486e4"
"3263",5,0,7,"12_ouzo_reg",10.99,FALSE,"F5-fill_2",NA,NA,"5de24745d521a00010b486e4"
"3264",5,0,8,"smirnoff_de",12.99,FALSE,"F5-fill_2",NA,NA,"5de24745d521a00010b486e4"
"3265",6,0,0,"12_ouzo_reg",10.99,FALSE,"F6-fill_1",NA,NA,"5de24745d521a00010b486e4"
"3266",6,0,1,"rotkappchen",4.99,FALSE,"F6-fill_1",NA,NA,"5de24745d521a00010b486e4"
"3267",6,0,2,"gordons_export",11.99,FALSE,"F6-fill_1",NA,NA,"5de24745d521a00010b486e4"
"3268",6,0,3,"gordons_export_large",14.99,FALSE,"F6-fill_1",NA,21.99,"5de24745d521a00010b486e4"
"3269",6,0,4,"blanchet_red",6.99,FALSE,"F6-fill_1",NA,NA,"5de24745d521a00010b486e4"
"3270",6,0,5,"lillet",12.99,FALSE,"F6-fill_1",NA,14.99,"5de24745d521a00010b486e4"
"3271",6,0,6,"blanchet_white",6.99,TRUE,"F6-fill_1",8859,NA,"5de24745d521a00010b486e4"
"3272",6,0,7,"smirnoff_de",12.99,FALSE,"F6-fill_1",NA,NA,"5de24745d521a00010b486e4"
"3273",6,0,8,"malibu",12.99,FALSE,"F6-fill_1",NA,NA,"5de24745d521a00010b486e4"
"3274",7,0,0,"blanchet_white",6.99,TRUE,"F6-fill_2",15894,NA,"5de24745d521a00010b486e4"
"3275",7,0,1,"smirnoff_de",12.99,FALSE,"F6-fill_2",NA,19.99,"5de24745d521a00010b486e4"
"3276",7,0,2,"12_ouzo_reg",10.99,FALSE,"F6-fill_2",NA,13.99,"5de24745d521a00010b486e4"
"3277",7,0,3,"blanchet_red",6.99,FALSE,"F6-fill_2",NA,NA,"5de24745d521a00010b486e4"
"3278",7,0,4,"gordons_export",11.99,FALSE,"F6-fill_2",NA,12.99,"5de24745d521a00010b486e4"
"3279",7,0,5,"malibu",12.99,FALSE,"F6-fill_2",NA,NA,"5de24745d521a00010b486e4"
"3280",7,0,6,"lillet",12.99,FALSE,"F6-fill_2",NA,NA,"5de24745d521a00010b486e4"
"3281",7,0,7,"gordons_export_large",14.99,FALSE,"F6-fill_2",NA,NA,"5de24745d521a00010b486e4"
"3282",7,0,8,"rotkappchen",4.99,FALSE,"F6-fill_2",NA,NA,"5de24745d521a00010b486e4"
"3283",8,0,0,"gordons_export",11.99,FALSE,"F6-fill_4",NA,NA,"5de24745d521a00010b486e4"
"3284",8,0,1,"gordons_export_large",14.99,FALSE,"F6-fill_4",NA,NA,"5de24745d521a00010b486e4"
"3285",8,0,2,"smirnoff_de",12.99,FALSE,"F6-fill_4",NA,NA,"5de24745d521a00010b486e4"
"3286",8,0,3,"rotkappchen",4.99,FALSE,"F6-fill_4",NA,NA,"5de24745d521a00010b486e4"
"3287",8,0,4,"malibu",12.99,FALSE,"F6-fill_4",NA,NA,"5de24745d521a00010b486e4"
"3288",8,0,5,"lillet",12.99,FALSE,"F6-fill_4",NA,NA,"5de24745d521a00010b486e4"
"3289",8,0,6,"blanchet_white",6.99,TRUE,"F6-fill_4",5627,NA,"5de24745d521a00010b486e4"
"3290",8,0,7,"blanchet_red",6.99,FALSE,"F6-fill_4",NA,NA,"5de24745d521a00010b486e4"
"3291",8,0,8,"12_ouzo_reg",10.99,FALSE,"F6-fill_4",NA,NA,"5de24745d521a00010b486e4"
"3292",9,0,0,"blanchet_red",6.99,FALSE,"F5-fill_3",NA,NA,"5de24745d521a00010b486e4"
"3293",9,0,1,"12_ouzo_reg",10.99,FALSE,"F5-fill_3",NA,18.99,"5de24745d521a00010b486e4"
"3294",9,0,2,"gordons_export",11.99,FALSE,"F5-fill_3",NA,17.99,"5de24745d521a00010b486e4"
"3295",9,0,3,"smirnoff_de",12.99,FALSE,"F5-fill_3",NA,NA,"5de24745d521a00010b486e4"
"3296",9,0,4,"malibu",12.99,FALSE,"F5-fill_3",NA,NA,"5de24745d521a00010b486e4"
"3297",9,0,5,"blanchet_white",6.99,TRUE,"F5-fill_3",4922,9.99,"5de24745d521a00010b486e4"
"3298",9,0,6,"rotkappchen",4.99,FALSE,"F5-fill_3",NA,NA,"5de24745d521a00010b486e4"
"3299",9,0,7,"lillet",12.99,FALSE,"F5-fill_3",NA,NA,"5de24745d521a00010b486e4"
"3300",9,0,8,"gordons_export_large",14.99,FALSE,"F5-fill_3",NA,18.99,"5de24745d521a00010b486e4"
"3478",0,0,0,"ramazzotti",11.99,FALSE,"F6-3",NA,NA,"5de254ec625af00010e7908a"
"3479",0,0,1,"jagermeister",13.99,TRUE,"F6-3",7246,NA,"5de254ec625af00010e7908a"
"3480",0,0,2,"licor_43",11.99,FALSE,"F6-3",NA,NA,"5de254ec625af00010e7908a"
"3481",0,0,3,"amarula",11.99,FALSE,"F6-3",NA,NA,"5de254ec625af00010e7908a"
"3482",0,0,4,"kronenhof_advocaat",3.99,FALSE,"F6-3",NA,NA,"5de254ec625af00010e7908a"
"3483",0,0,5,"baileys_700ml",12.99,FALSE,"F6-3",NA,NA,"5de254ec625af00010e7908a"
"3484",0,0,6,"12_ouzo_reg",8.99,FALSE,"F6-3",NA,NA,"5de254ec625af00010e7908a"
"3485",0,0,7,"averna",14.99,FALSE,"F6-3",NA,NA,"5de254ec625af00010e7908a"
"3486",0,0,8,"disaronno",29.99,FALSE,"F6-3",NA,NA,"5de254ec625af00010e7908a"
"3487",0,0,9,"high_mountains",3.99,FALSE,"F6-3",NA,NA,"5de254ec625af00010e7908a"
"3488",0,0,10,"baileys_1000ml",15.99,FALSE,"F6-3",NA,18.99,"5de254ec625af00010e7908a"
"3489",1,0,0,"blanchet_red",6.99,FALSE,"F5-fill_2",NA,NA,"5de254ec625af00010e7908a"
"3490",1,0,1,"rotkappchen",4.99,FALSE,"F5-fill_2",NA,NA,"5de254ec625af00010e7908a"
"3491",1,0,2,"malibu",12.99,FALSE,"F5-fill_2",NA,NA,"5de254ec625af00010e7908a"
"3492",1,0,3,"smirnoff_de",12.99,FALSE,"F5-fill_2",NA,NA,"5de254ec625af00010e7908a"
"3493",1,0,4,"blanchet_white",6.99,TRUE,"F5-fill_2",9207,NA,"5de254ec625af00010e7908a"
"3494",1,0,5,"lillet",12.99,FALSE,"F5-fill_2",NA,NA,"5de254ec625af00010e7908a"
"3495",1,0,6,"12_ouzo_reg",10.99,FALSE,"F5-fill_2",NA,NA,"5de254ec625af00010e7908a"
"3496",1,0,7,"gordons_export_large",14.99,FALSE,"F5-fill_2",NA,NA,"5de254ec625af00010e7908a"
"3497",1,0,8,"gordons_export",11.99,FALSE,"F5-fill_2",NA,17.99,"5de254ec625af00010e7908a"
"3498",2,0,0,"smirnoff_de",12.99,FALSE,"F5-fill_3",NA,NA,"5de254ec625af00010e7908a"
"3499",2,0,1,"blanchet_red",6.99,FALSE,"F5-fill_3",NA,NA,"5de254ec625af00010e7908a"
"3500",2,0,2,"gordons_export_large",14.99,FALSE,"F5-fill_3",NA,18.99,"5de254ec625af00010e7908a"
"3501",2,0,3,"lillet",12.99,FALSE,"F5-fill_3",NA,NA,"5de254ec625af00010e7908a"
"3502",2,0,4,"malibu",12.99,FALSE,"F5-fill_3",NA,NA,"5de254ec625af00010e7908a"
"3503",2,0,5,"rotkappchen",4.99,FALSE,"F5-fill_3",NA,NA,"5de254ec625af00010e7908a"
"3504",2,0,6,"12_ouzo_reg",10.99,FALSE,"F5-fill_3",NA,18.99,"5de254ec625af00010e7908a"
"3505",2,0,7,"gordons_export",11.99,FALSE,"F5-fill_3",NA,17.99,"5de254ec625af00010e7908a"
"3506",2,0,8,"blanchet_white",6.99,TRUE,"F5-fill_3",4582,9.99,"5de254ec625af00010e7908a"
"3507",3,0,0,"rotkappchen",4.99,FALSE,"F6-fill_1",NA,NA,"5de254ec625af00010e7908a"
"3508",3,0,1,"gordons_export",11.99,FALSE,"F6-fill_1",NA,NA,"5de254ec625af00010e7908a"
"3509",3,0,2,"lillet",12.99,FALSE,"F6-fill_1",NA,14.99,"5de254ec625af00010e7908a"
"3510",3,0,3,"12_ouzo_reg",10.99,FALSE,"F6-fill_1",NA,NA,"5de254ec625af00010e7908a"
"3511",3,0,4,"blanchet_white",6.99,TRUE,"F6-fill_1",3396,NA,"5de254ec625af00010e7908a"
"3512",3,0,5,"smirnoff_de",12.99,FALSE,"F6-fill_1",NA,NA,"5de254ec625af00010e7908a"
"3513",3,0,6,"malibu",12.99,FALSE,"F6-fill_1",NA,NA,"5de254ec625af00010e7908a"
"3514",3,0,7,"blanchet_red",6.99,FALSE,"F6-fill_1",NA,NA,"5de254ec625af00010e7908a"
"3515",3,0,8,"gordons_export_large",14.99,FALSE,"F6-fill_1",NA,21.99,"5de254ec625af00010e7908a"
"3516",4,0,0,"jagermeister",13.99,TRUE,"F6-5",2163,NA,"5de254ec625af00010e7908a"
"3517",4,0,1,"baileys_1000ml",13.99,FALSE,"F6-5",NA,18.99,"5de254ec625af00010e7908a"
"3518",4,0,2,"averna",14.99,FALSE,"F6-5",NA,NA,"5de254ec625af00010e7908a"
"3519",4,0,3,"amarula",11.99,FALSE,"F6-5",NA,NA,"5de254ec625af00010e7908a"
"3520",4,0,4,"12_ouzo_reg",8.99,FALSE,"F6-5",NA,NA,"5de254ec625af00010e7908a"
"3521",4,0,5,"kronenhof_advocaat",3.99,FALSE,"F6-5",NA,NA,"5de254ec625af00010e7908a"
"3522",4,0,6,"high_mountains",3.99,FALSE,"F6-5",NA,NA,"5de254ec625af00010e7908a"
"3523",4,0,7,"ramazzotti",11.99,FALSE,"F6-5",NA,NA,"5de254ec625af00010e7908a"
"3524",4,0,8,"baileys_700ml",12.99,FALSE,"F6-5",NA,NA,"5de254ec625af00010e7908a"
"3525",4,0,9,"licor_43",11.99,FALSE,"F6-5",NA,NA,"5de254ec625af00010e7908a"
"3526",4,0,10,"disaronno",29.99,FALSE,"F6-5",NA,NA,"5de254ec625af00010e7908a"
"3527",5,0,0,"averna",14.99,FALSE,"F5-2",NA,NA,"5de254ec625af00010e7908a"
"3528",5,0,1,"amarula",11.99,FALSE,"F5-2",NA,NA,"5de254ec625af00010e7908a"
"3529",5,0,2,"jagermeister",13.99,FALSE,"F5-2",NA,NA,"5de254ec625af00010e7908a"
"3530",5,0,3,"high_mountains",3.99,FALSE,"F5-2",NA,NA,"5de254ec625af00010e7908a"
"3531",5,0,4,"kronenhof_advocaat",3.99,FALSE,"F5-2",NA,NA,"5de254ec625af00010e7908a"
"3532",5,0,5,"baileys_700ml",13.99,FALSE,"F5-2",NA,NA,"5de254ec625af00010e7908a"
"3533",5,0,6,"licor_43",11.99,FALSE,"F5-2",NA,NA,"5de254ec625af00010e7908a"
"3534",5,0,7,"12_ouzo_reg",8.99,FALSE,"F5-2",NA,NA,"5de254ec625af00010e7908a"
"3535",5,0,8,"disaronno",29.99,FALSE,"F5-2",NA,NA,"5de254ec625af00010e7908a"
"3536",5,0,9,"ramazzotti",11.99,TRUE,"F5-2",3793,NA,"5de254ec625af00010e7908a"
"3537",6,0,0,"blanchet_red",6.99,TRUE,"F6-fill_2",4255,NA,"5de254ec625af00010e7908a"
"3538",6,0,1,"blanchet_white",6.99,FALSE,"F6-fill_2",NA,NA,"5de254ec625af00010e7908a"
"3539",6,0,2,"12_ouzo_reg",10.99,FALSE,"F6-fill_2",NA,13.99,"5de254ec625af00010e7908a"
"3540",6,0,3,"lillet",12.99,FALSE,"F6-fill_2",NA,NA,"5de254ec625af00010e7908a"
"3541",6,0,4,"gordons_export_large",14.99,FALSE,"F6-fill_2",NA,NA,"5de254ec625af00010e7908a"
"3542",6,0,5,"smirnoff_de",12.99,FALSE,"F6-fill_2",NA,19.99,"5de254ec625af00010e7908a"
"3543",6,0,6,"malibu",12.99,FALSE,"F6-fill_2",NA,NA,"5de254ec625af00010e7908a"
"3544",6,0,7,"rotkappchen",4.99,FALSE,"F6-fill_2",NA,NA,"5de254ec625af00010e7908a"
"3545",6,0,8,"gordons_export",11.99,FALSE,"F6-fill_2",NA,12.99,"5de254ec625af00010e7908a"
"3546",7,0,0,"gordons_export",11.99,FALSE,"F5-fill_5",NA,NA,"5de254ec625af00010e7908a"
"3547",7,0,1,"smirnoff_de",12.99,FALSE,"F5-fill_5",NA,NA,"5de254ec625af00010e7908a"
"3548",7,0,2,"gordons_export_large",14.99,FALSE,"F5-fill_5",NA,NA,"5de254ec625af00010e7908a"
"3549",7,0,3,"blanchet_white",6.99,FALSE,"F5-fill_5",NA,NA,"5de254ec625af00010e7908a"
"3550",7,0,4,"blanchet_red",6.99,TRUE,"F5-fill_5",2248,9.99,"5de254ec625af00010e7908a"
"3551",7,0,5,"malibu",12.99,FALSE,"F5-fill_5",NA,NA,"5de254ec625af00010e7908a"
"3552",7,0,6,"12_ouzo_reg",10.99,FALSE,"F5-fill_5",NA,NA,"5de254ec625af00010e7908a"
"3553",7,0,7,"lillet",12.99,FALSE,"F5-fill_5",NA,NA,"5de254ec625af00010e7908a"
"3554",7,0,8,"rotkappchen",4.99,FALSE,"F5-fill_5",NA,NA,"5de254ec625af00010e7908a"
"3555",8,0,0,"averna",14.99,FALSE,"F6-2",NA,NA,"5de254ec625af00010e7908a"
"3556",8,0,1,"amarula",11.99,FALSE,"F6-2",NA,NA,"5de254ec625af00010e7908a"
"3557",8,0,2,"high_mountains",3.99,FALSE,"F6-2",NA,NA,"5de254ec625af00010e7908a"
"3558",8,0,3,"baileys_1000ml",16.99,TRUE,"F6-2",2473,18.99,"5de254ec625af00010e7908a"
"3559",8,0,4,"kronenhof_advocaat",3.99,FALSE,"F6-2",NA,NA,"5de254ec625af00010e7908a"
"3560",8,0,5,"12_ouzo_reg",8.99,FALSE,"F6-2",NA,NA,"5de254ec625af00010e7908a"
"3561",8,0,6,"disaronno",29.99,FALSE,"F6-2",NA,NA,"5de254ec625af00010e7908a"
"3562",8,0,7,"ramazzotti",11.99,FALSE,"F6-2",NA,NA,"5de254ec625af00010e7908a"
"3563",8,0,8,"licor_43",11.99,FALSE,"F6-2",NA,NA,"5de254ec625af00010e7908a"
"3564",8,0,9,"jagermeister",13.99,FALSE,"F6-2",NA,NA,"5de254ec625af00010e7908a"
"3565",8,0,10,"baileys_700ml",12.99,FALSE,"F6-2",NA,NA,"5de254ec625af00010e7908a"
"3566",9,0,0,"malibu",12.99,FALSE,"F6-fill_4",NA,NA,"5de254ec625af00010e7908a"
"3567",9,0,1,"smirnoff_de",12.99,FALSE,"F6-fill_4",NA,NA,"5de254ec625af00010e7908a"
"3568",9,0,2,"12_ouzo_reg",10.99,FALSE,"F6-fill_4",NA,NA,"5de254ec625af00010e7908a"
"3569",9,0,3,"gordons_export_large",14.99,FALSE,"F6-fill_4",NA,NA,"5de254ec625af00010e7908a"
"3570",9,0,4,"blanchet_red",6.99,FALSE,"F6-fill_4",NA,NA,"5de254ec625af00010e7908a"
"3571",9,0,5,"lillet",12.99,FALSE,"F6-fill_4",NA,NA,"5de254ec625af00010e7908a"
"3572",9,0,6,"blanchet_white",6.99,TRUE,"F6-fill_4",4611,NA,"5de254ec625af00010e7908a"
"3573",9,0,7,"gordons_export",11.99,FALSE,"F6-fill_4",NA,NA,"5de254ec625af00010e7908a"
"3574",9,0,8,"rotkappchen",4.99,FALSE,"F6-fill_4",NA,NA,"5de254ec625af00010e7908a"
"3668",0,0,0,"disaronno",29.99,FALSE,"F6-3",NA,NA,"5de25518625af00010e790af"
"3669",0,0,1,"12_ouzo_reg",8.99,FALSE,"F6-3",NA,NA,"5de25518625af00010e790af"
"3670",0,0,2,"ramazzotti",11.99,FALSE,"F6-3",NA,NA,"5de25518625af00010e790af"
"3671",0,0,3,"kronenhof_advocaat",3.99,FALSE,"F6-3",NA,NA,"5de25518625af00010e790af"
"3672",0,0,4,"averna",14.99,FALSE,"F6-3",NA,NA,"5de25518625af00010e790af"
"3673",0,0,5,"high_mountains",3.99,FALSE,"F6-3",NA,NA,"5de25518625af00010e790af"
"3674",0,0,6,"baileys_1000ml",15.99,TRUE,"F6-3",2359,18.99,"5de25518625af00010e790af"
"3675",0,0,7,"licor_43",11.99,FALSE,"F6-3",NA,NA,"5de25518625af00010e790af"
"3676",0,0,8,"amarula",11.99,FALSE,"F6-3",NA,NA,"5de25518625af00010e790af"
"3677",0,0,9,"jagermeister",13.99,FALSE,"F6-3",NA,NA,"5de25518625af00010e790af"
"3678",0,0,10,"baileys_700ml",12.99,FALSE,"F6-3",NA,NA,"5de25518625af00010e790af"
"3679",1,0,0,"averna",14.99,FALSE,"F5-3",NA,NA,"5de25518625af00010e790af"
"3680",1,0,1,"baileys_700ml",12.99,FALSE,"F5-3",NA,NA,"5de25518625af00010e790af"
"3681",1,0,2,"jagermeister",13.99,TRUE,"F5-3",2741,NA,"5de25518625af00010e790af"
"3682",1,0,3,"amarula",11.99,FALSE,"F5-3",NA,NA,"5de25518625af00010e790af"
"3683",1,0,4,"high_mountains",3.99,FALSE,"F5-3",NA,NA,"5de25518625af00010e790af"
"3684",1,0,5,"12_ouzo_reg",8.99,FALSE,"F5-3",NA,NA,"5de25518625af00010e790af"
"3685",1,0,6,"licor_43",11.99,FALSE,"F5-3",NA,NA,"5de25518625af00010e790af"
"3686",1,0,7,"disaronno",29.99,FALSE,"F5-3",NA,NA,"5de25518625af00010e790af"
"3687",1,0,8,"kronenhof_advocaat",3.99,FALSE,"F5-3",NA,NA,"5de25518625af00010e790af"
"3688",1,0,9,"ramazzotti",11.99,FALSE,"F5-3",NA,NA,"5de25518625af00010e790af"
"3689",2,0,0,"12_ouzo_reg",10.99,FALSE,"F6-fill_4",NA,NA,"5de25518625af00010e790af"
"3690",2,0,1,"smirnoff_de",12.99,FALSE,"F6-fill_4",NA,NA,"5de25518625af00010e790af"
"3691",2,0,2,"blanchet_white",6.99,FALSE,"F6-fill_4",NA,NA,"5de25518625af00010e790af"
"3692",2,0,3,"gordons_export",11.99,FALSE,"F6-fill_4",NA,NA,"5de25518625af00010e790af"
"3693",2,0,4,"malibu",12.99,FALSE,"F6-fill_4",NA,NA,"5de25518625af00010e790af"
"3694",2,0,5,"lillet",12.99,FALSE,"F6-fill_4",NA,NA,"5de25518625af00010e790af"
"3695",2,0,6,"gordons_export_large",14.99,FALSE,"F6-fill_4",NA,NA,"5de25518625af00010e790af"
"3696",2,0,7,"blanchet_red",6.99,TRUE,"F6-fill_4",1358,NA,"5de25518625af00010e790af"
"3697",2,0,8,"rotkappchen",4.99,FALSE,"F6-fill_4",NA,NA,"5de25518625af00010e790af"
"3698",3,0,0,"lillet",12.99,FALSE,"F6-fill_3",NA,15.99,"5de25518625af00010e790af"
"3699",3,0,1,"blanchet_white",6.99,FALSE,"F6-fill_3",NA,NA,"5de25518625af00010e790af"
"3700",3,0,2,"smirnoff_de",12.99,FALSE,"F6-fill_3",NA,NA,"5de25518625af00010e790af"
"3701",3,0,3,"12_ouzo_reg",10.99,FALSE,"F6-fill_3",NA,NA,"5de25518625af00010e790af"
"3702",3,0,4,"gordons_export",11.99,FALSE,"F6-fill_3",NA,NA,"5de25518625af00010e790af"
"3703",3,0,5,"malibu",12.99,TRUE,"F6-fill_3",1692,NA,"5de25518625af00010e790af"
"3704",3,0,6,"blanchet_red",6.99,FALSE,"F6-fill_3",NA,NA,"5de25518625af00010e790af"
"3705",3,0,7,"rotkappchen",4.99,FALSE,"F6-fill_3",NA,NA,"5de25518625af00010e790af"
"3706",3,0,8,"gordons_export_large",14.99,FALSE,"F6-fill_3",NA,NA,"5de25518625af00010e790af"
"3707",4,0,0,"rotkappchen",4.99,TRUE,"F6-fill_5",924,NA,"5de25518625af00010e790af"
"3708",4,0,1,"malibu",12.99,FALSE,"F6-fill_5",NA,16.99,"5de25518625af00010e790af"
"3709",4,0,2,"gordons_export",11.99,FALSE,"F6-fill_5",NA,NA,"5de25518625af00010e790af"
"3710",4,0,3,"gordons_export_large",14.99,FALSE,"F6-fill_5",NA,17.99,"5de25518625af00010e790af"
"3711",4,0,4,"lillet",12.99,FALSE,"F6-fill_5",NA,NA,"5de25518625af00010e790af"
"3712",4,0,5,"blanchet_red",6.99,FALSE,"F6-fill_5",NA,NA,"5de25518625af00010e790af"
"3713",4,0,6,"12_ouzo_reg",10.99,FALSE,"F6-fill_5",NA,NA,"5de25518625af00010e790af"
"3714",4,0,7,"blanchet_white",6.99,FALSE,"F6-fill_5",NA,NA,"5de25518625af00010e790af"
"3715",4,0,8,"smirnoff_de",12.99,FALSE,"F6-fill_5",NA,19.99,"5de25518625af00010e790af"
"3716",5,0,0,"blanchet_white",6.99,FALSE,"F5-fill_3",NA,9.99,"5de25518625af00010e790af"
"3717",5,0,1,"gordons_export_large",14.99,TRUE,"F5-fill_3",979,18.99,"5de25518625af00010e790af"
"3718",5,0,2,"rotkappchen",4.99,FALSE,"F5-fill_3",NA,NA,"5de25518625af00010e790af"
"3719",5,0,3,"blanchet_red",6.99,FALSE,"F5-fill_3",NA,NA,"5de25518625af00010e790af"
"3720",5,0,4,"smirnoff_de",12.99,FALSE,"F5-fill_3",NA,NA,"5de25518625af00010e790af"
"3721",5,0,5,"12_ouzo_reg",10.99,FALSE,"F5-fill_3",NA,18.99,"5de25518625af00010e790af"
"3722",5,0,6,"gordons_export",11.99,FALSE,"F5-fill_3",NA,17.99,"5de25518625af00010e790af"
"3723",5,0,7,"malibu",12.99,FALSE,"F5-fill_3",NA,NA,"5de25518625af00010e790af"
"3724",5,0,8,"lillet",12.99,FALSE,"F5-fill_3",NA,NA,"5de25518625af00010e790af"
"3725",6,0,0,"12_ouzo_reg",8.99,FALSE,"F6-2",NA,NA,"5de25518625af00010e790af"
"3726",6,0,1,"licor_43",11.99,FALSE,"F6-2",NA,NA,"5de25518625af00010e790af"
"3727",6,0,2,"kronenhof_advocaat",3.99,FALSE,"F6-2",NA,NA,"5de25518625af00010e790af"
"3728",6,0,3,"ramazzotti",11.99,FALSE,"F6-2",NA,NA,"5de25518625af00010e790af"
"3729",6,0,4,"baileys_700ml",12.99,FALSE,"F6-2",NA,NA,"5de25518625af00010e790af"
"3730",6,0,5,"disaronno",29.99,FALSE,"F6-2",NA,NA,"5de25518625af00010e790af"
"3731",6,0,6,"jagermeister",13.99,TRUE,"F6-2",574,NA,"5de25518625af00010e790af"
"3732",6,0,7,"averna",14.99,FALSE,"F6-2",NA,NA,"5de25518625af00010e790af"
"3733",6,0,8,"baileys_1000ml",16.99,FALSE,"F6-2",NA,18.99,"5de25518625af00010e790af"
"3734",6,0,9,"amarula",11.99,FALSE,"F6-2",NA,NA,"5de25518625af00010e790af"
"3735",6,0,10,"high_mountains",3.99,FALSE,"F6-2",NA,NA,"5de25518625af00010e790af"
"3736",7,0,0,"disaronno",29.99,FALSE,"F5-4",NA,NA,"5de25518625af00010e790af"
"3737",7,0,1,"averna",14.99,FALSE,"F5-4",NA,NA,"5de25518625af00010e790af"
"3738",7,0,2,"kronenhof_advocaat",3.99,FALSE,"F5-4",NA,NA,"5de25518625af00010e790af"
"3739",7,0,3,"ramazzotti",11.99,FALSE,"F5-4",NA,NA,"5de25518625af00010e790af"
"3740",7,0,4,"licor_43",11.99,FALSE,"F5-4",NA,NA,"5de25518625af00010e790af"
"3741",7,0,5,"amarula",11.99,FALSE,"F5-4",NA,NA,"5de25518625af00010e790af"
"3742",7,0,6,"high_mountains",3.99,TRUE,"F5-4",744,NA,"5de25518625af00010e790af"
"3743",7,0,7,"baileys_700ml",11.99,FALSE,"F5-4",NA,NA,"5de25518625af00010e790af"
"3744",7,0,8,"jagermeister",13.99,FALSE,"F5-4",NA,NA,"5de25518625af00010e790af"
"3745",7,0,9,"12_ouzo_reg",8.99,FALSE,"F5-4",NA,NA,"5de25518625af00010e790af"
"3746",8,0,0,"licor_43",11.99,FALSE,"F6-4",NA,NA,"5de25518625af00010e790af"
"3747",8,0,1,"disaronno",29.99,FALSE,"F6-4",NA,NA,"5de25518625af00010e790af"
"3748",8,0,2,"amarula",11.99,FALSE,"F6-4",NA,NA,"5de25518625af00010e790af"
"3749",8,0,3,"high_mountains",3.99,FALSE,"F6-4",NA,NA,"5de25518625af00010e790af"
"3750",8,0,4,"jagermeister",13.99,FALSE,"F6-4",NA,NA,"5de25518625af00010e790af"
"3751",8,0,5,"baileys_700ml",12.99,FALSE,"F6-4",NA,NA,"5de25518625af00010e790af"
"3752",8,0,6,"kronenhof_advocaat",3.99,FALSE,"F6-4",NA,NA,"5de25518625af00010e790af"
"3753",8,0,7,"ramazzotti",11.99,FALSE,"F6-4",NA,NA,"5de25518625af00010e790af"
"3754",8,0,8,"12_ouzo_reg",8.99,TRUE,"F6-4",942,NA,"5de25518625af00010e790af"
"3755",8,0,9,"averna",14.99,FALSE,"F6-4",NA,NA,"5de25518625af00010e790af"
"3756",8,0,10,"baileys_1000ml",14.99,FALSE,"F6-4",NA,18.99,"5de25518625af00010e790af"
"3757",9,0,0,"gordons_export_large",14.99,FALSE,"F5-fill_1",NA,NA,"5de25518625af00010e790af"
"3758",9,0,1,"malibu",12.99,FALSE,"F5-fill_1",NA,NA,"5de25518625af00010e790af"
"3759",9,0,2,"blanchet_white",6.99,FALSE,"F5-fill_1",NA,9.99,"5de25518625af00010e790af"
"3760",9,0,3,"gordons_export",11.99,TRUE,"F5-fill_1",821,NA,"5de25518625af00010e790af"
"3761",9,0,4,"smirnoff_de",12.99,FALSE,"F5-fill_1",NA,NA,"5de25518625af00010e790af"
"3762",9,0,5,"blanchet_red",6.99,FALSE,"F5-fill_1",NA,13.99,"5de25518625af00010e790af"
"3763",9,0,6,"12_ouzo_reg",10.99,FALSE,"F5-fill_1",NA,16.99,"5de25518625af00010e790af"
"3764",9,0,7,"lillet",12.99,FALSE,"F5-fill_1",NA,16.99,"5de25518625af00010e790af"
"3765",9,0,8,"rotkappchen",4.99,FALSE,"F5-fill_1",NA,NA,"5de25518625af00010e790af"
"4310",0,0,0,"baileys_1000ml",17.99,FALSE,"F6-1",NA,18.99,"5de27242d521a00010b48e20"
"4311",0,0,1,"ramazzotti",11.99,FALSE,"F6-1",NA,NA,"5de27242d521a00010b48e20"
"4312",0,0,2,"averna",14.99,FALSE,"F6-1",NA,NA,"5de27242d521a00010b48e20"
"4313",0,0,3,"amarula",11.99,FALSE,"F6-1",NA,NA,"5de27242d521a00010b48e20"
"4314",0,0,4,"kronenhof_advocaat",3.99,FALSE,"F6-1",NA,NA,"5de27242d521a00010b48e20"
"4315",0,0,5,"licor_43",11.99,FALSE,"F6-1",NA,NA,"5de27242d521a00010b48e20"
"4316",0,0,6,"high_mountains",3.99,FALSE,"F6-1",NA,NA,"5de27242d521a00010b48e20"
"4317",0,0,7,"baileys_700ml",12.99,TRUE,"F6-1",1697,NA,"5de27242d521a00010b48e20"
"4318",0,0,8,"disaronno",29.99,FALSE,"F6-1",NA,NA,"5de27242d521a00010b48e20"
"4319",0,0,9,"12_ouzo_reg",8.99,FALSE,"F6-1",NA,NA,"5de27242d521a00010b48e20"
"4320",0,0,10,"jagermeister",13.99,FALSE,"F6-1",NA,NA,"5de27242d521a00010b48e20"
"4321",1,0,0,"rotkappchen",4.99,FALSE,"F5-fill_1",NA,NA,"5de27242d521a00010b48e20"
"4322",1,0,1,"malibu",12.99,FALSE,"F5-fill_1",NA,NA,"5de27242d521a00010b48e20"
"4323",1,0,2,"12_ouzo_reg",10.99,FALSE,"F5-fill_1",NA,16.99,"5de27242d521a00010b48e20"
"4324",1,0,3,"gordons_export_large",14.99,FALSE,"F5-fill_1",NA,NA,"5de27242d521a00010b48e20"
"4325",1,0,4,"blanchet_white",6.99,FALSE,"F5-fill_1",NA,9.99,"5de27242d521a00010b48e20"
"4326",1,0,5,"gordons_export",11.99,FALSE,"F5-fill_1",NA,NA,"5de27242d521a00010b48e20"
"4327",1,0,6,"smirnoff_de",12.99,FALSE,"F5-fill_1",NA,NA,"5de27242d521a00010b48e20"
"4328",1,0,7,"lillet",12.99,TRUE,"F5-fill_1",478,16.99,"5de27242d521a00010b48e20"
"4329",1,0,8,"blanchet_red",6.99,FALSE,"F5-fill_1",NA,13.99,"5de27242d521a00010b48e20"
"4330",2,0,0,"malibu",12.99,FALSE,"F5-fill_2",NA,NA,"5de27242d521a00010b48e20"
"4331",2,0,1,"rotkappchen",4.99,FALSE,"F5-fill_2",NA,NA,"5de27242d521a00010b48e20"
"4332",2,0,2,"gordons_export",11.99,FALSE,"F5-fill_2",NA,17.99,"5de27242d521a00010b48e20"
"4333",2,0,3,"gordons_export_large",14.99,FALSE,"F5-fill_2",NA,NA,"5de27242d521a00010b48e20"
"4334",2,0,4,"12_ouzo_reg",10.99,FALSE,"F5-fill_2",NA,NA,"5de27242d521a00010b48e20"
"4335",2,0,5,"blanchet_white",6.99,FALSE,"F5-fill_2",NA,NA,"5de27242d521a00010b48e20"
"4336",2,0,6,"blanchet_red",6.99,FALSE,"F5-fill_2",NA,NA,"5de27242d521a00010b48e20"
"4337",2,0,7,"lillet",12.99,TRUE,"F5-fill_2",98,NA,"5de27242d521a00010b48e20"
"4338",2,0,8,"smirnoff_de",12.99,FALSE,"F5-fill_2",NA,NA,"5de27242d521a00010b48e20"
"4339",3,0,0,"gordons_export_large",14.99,FALSE,"F6-fill_1",NA,21.99,"5de27242d521a00010b48e20"
"4340",3,0,1,"gordons_export",11.99,FALSE,"F6-fill_1",NA,NA,"5de27242d521a00010b48e20"
"4341",3,0,2,"blanchet_white",6.99,FALSE,"F6-fill_1",NA,NA,"5de27242d521a00010b48e20"
"4342",3,0,3,"12_ouzo_reg",10.99,FALSE,"F6-fill_1",NA,NA,"5de27242d521a00010b48e20"
"4343",3,0,4,"smirnoff_de",12.99,FALSE,"F6-fill_1",NA,NA,"5de27242d521a00010b48e20"
"4344",3,0,5,"lillet",12.99,FALSE,"F6-fill_1",NA,14.99,"5de27242d521a00010b48e20"
"4345",3,0,6,"malibu",12.99,FALSE,"F6-fill_1",NA,NA,"5de27242d521a00010b48e20"
"4346",3,0,7,"rotkappchen",4.99,TRUE,"F6-fill_1",678,NA,"5de27242d521a00010b48e20"
"4347",3,0,8,"blanchet_red",6.99,FALSE,"F6-fill_1",NA,NA,"5de27242d521a00010b48e20"
"4348",4,0,0,"malibu",12.99,FALSE,"F5-fill_5",NA,NA,"5de27242d521a00010b48e20"
"4349",4,0,1,"blanchet_white",6.99,FALSE,"F5-fill_5",NA,NA,"5de27242d521a00010b48e20"
"4350",4,0,2,"12_ouzo_reg",10.99,FALSE,"F5-fill_5",NA,NA,"5de27242d521a00010b48e20"
"4351",4,0,3,"gordons_export",11.99,FALSE,"F5-fill_5",NA,NA,"5de27242d521a00010b48e20"
"4352",4,0,4,"smirnoff_de",12.99,FALSE,"F5-fill_5",NA,NA,"5de27242d521a00010b48e20"
"4353",4,0,5,"rotkappchen",4.99,FALSE,"F5-fill_5",NA,NA,"5de27242d521a00010b48e20"
"4354",4,0,6,"blanchet_red",6.99,FALSE,"F5-fill_5",NA,9.99,"5de27242d521a00010b48e20"
"4355",4,0,7,"gordons_export_large",14.99,TRUE,"F5-fill_5",414,NA,"5de27242d521a00010b48e20"
"4356",4,0,8,"lillet",12.99,FALSE,"F5-fill_5",NA,NA,"5de27242d521a00010b48e20"
"4357",5,0,0,"rotkappchen",4.99,FALSE,"F6-fill_5",NA,NA,"5de27242d521a00010b48e20"
"4358",5,0,1,"gordons_export",11.99,FALSE,"F6-fill_5",NA,NA,"5de27242d521a00010b48e20"
"4359",5,0,2,"smirnoff_de",12.99,FALSE,"F6-fill_5",NA,19.99,"5de27242d521a00010b48e20"
"4360",5,0,3,"blanchet_white",6.99,TRUE,"F6-fill_5",199,NA,"5de27242d521a00010b48e20"
"4361",5,0,4,"12_ouzo_reg",10.99,FALSE,"F6-fill_5",NA,NA,"5de27242d521a00010b48e20"
"4362",5,0,5,"blanchet_red",6.99,FALSE,"F6-fill_5",NA,NA,"5de27242d521a00010b48e20"
"4363",5,0,6,"malibu",12.99,FALSE,"F6-fill_5",NA,16.99,"5de27242d521a00010b48e20"
"4364",5,0,7,"gordons_export_large",14.99,FALSE,"F6-fill_5",NA,17.99,"5de27242d521a00010b48e20"
"4365",5,0,8,"lillet",12.99,FALSE,"F6-fill_5",NA,NA,"5de27242d521a00010b48e20"
"4366",6,0,0,"12_ouzo_reg",8.99,FALSE,"F5-4",NA,NA,"5de27242d521a00010b48e20"
"4367",6,0,1,"amarula",11.99,FALSE,"F5-4",NA,NA,"5de27242d521a00010b48e20"
"4368",6,0,2,"baileys_700ml",11.99,FALSE,"F5-4",NA,NA,"5de27242d521a00010b48e20"
"4369",6,0,3,"disaronno",29.99,FALSE,"F5-4",NA,NA,"5de27242d521a00010b48e20"
"4370",6,0,4,"averna",14.99,FALSE,"F5-4",NA,NA,"5de27242d521a00010b48e20"
"4371",6,0,5,"high_mountains",3.99,TRUE,"F5-4",344,NA,"5de27242d521a00010b48e20"
"4372",6,0,6,"jagermeister",13.99,FALSE,"F5-4",NA,NA,"5de27242d521a00010b48e20"
"4373",6,0,7,"licor_43",11.99,FALSE,"F5-4",NA,NA,"5de27242d521a00010b48e20"
"4374",6,0,8,"kronenhof_advocaat",3.99,FALSE,"F5-4",NA,NA,"5de27242d521a00010b48e20"
"4375",6,0,9,"ramazzotti",11.99,FALSE,"F5-4",NA,NA,"5de27242d521a00010b48e20"
"4376",7,0,0,"kronenhof_advocaat",3.99,FALSE,"F6-3",NA,NA,"5de27242d521a00010b48e20"
"4377",7,0,1,"high_mountains",3.99,FALSE,"F6-3",NA,NA,"5de27242d521a00010b48e20"
"4378",7,0,2,"amarula",11.99,FALSE,"F6-3",NA,NA,"5de27242d521a00010b48e20"
"4379",7,0,3,"licor_43",11.99,FALSE,"F6-3",NA,NA,"5de27242d521a00010b48e20"
"4380",7,0,4,"averna",14.99,FALSE,"F6-3",NA,NA,"5de27242d521a00010b48e20"
"4381",7,0,5,"jagermeister",13.99,FALSE,"F6-3",NA,NA,"5de27242d521a00010b48e20"
"4382",7,0,6,"baileys_1000ml",15.99,FALSE,"F6-3",NA,18.99,"5de27242d521a00010b48e20"
"4383",7,0,7,"12_ouzo_reg",8.99,FALSE,"F6-3",NA,NA,"5de27242d521a00010b48e20"
"4384",7,0,8,"ramazzotti",11.99,FALSE,"F6-3",NA,NA,"5de27242d521a00010b48e20"
"4385",7,0,9,"baileys_700ml",12.99,TRUE,"F6-3",99,NA,"5de27242d521a00010b48e20"
"4386",7,0,10,"disaronno",29.99,FALSE,"F6-3",NA,NA,"5de27242d521a00010b48e20"
"4387",8,0,0,"kronenhof_advocaat",3.99,FALSE,"F5-1",NA,NA,"5de27242d521a00010b48e20"
"4388",8,0,1,"amarula",11.99,FALSE,"F5-1",NA,NA,"5de27242d521a00010b48e20"
"4389",8,0,2,"jagermeister",13.99,FALSE,"F5-1",NA,NA,"5de27242d521a00010b48e20"
"4390",8,0,3,"high_mountains",3.99,FALSE,"F5-1",NA,NA,"5de27242d521a00010b48e20"
"4391",8,0,4,"baileys_700ml",14.99,FALSE,"F5-1",NA,NA,"5de27242d521a00010b48e20"
"4392",8,0,5,"averna",14.99,FALSE,"F5-1",NA,NA,"5de27242d521a00010b48e20"
"4393",8,0,6,"ramazzotti",11.99,FALSE,"F5-1",NA,NA,"5de27242d521a00010b48e20"
"4394",8,0,7,"disaronno",29.99,FALSE,"F5-1",NA,NA,"5de27242d521a00010b48e20"
"4395",8,0,8,"licor_43",11.99,TRUE,"F5-1",64,NA,"5de27242d521a00010b48e20"
"4396",8,0,9,"12_ouzo_reg",8.99,FALSE,"F5-1",NA,NA,"5de27242d521a00010b48e20"
"4397",9,0,0,"ramazzotti",11.99,FALSE,"F6-4",NA,NA,"5de27242d521a00010b48e20"
"4398",9,0,1,"jagermeister",13.99,TRUE,"F6-4",280,NA,"5de27242d521a00010b48e20"
"4399",9,0,2,"kronenhof_advocaat",3.99,FALSE,"F6-4",NA,NA,"5de27242d521a00010b48e20"
"4400",9,0,3,"baileys_700ml",12.99,FALSE,"F6-4",NA,NA,"5de27242d521a00010b48e20"
"4401",9,0,4,"12_ouzo_reg",8.99,FALSE,"F6-4",NA,NA,"5de27242d521a00010b48e20"
"4402",9,0,5,"licor_43",11.99,FALSE,"F6-4",NA,NA,"5de27242d521a00010b48e20"
"4403",9,0,6,"amarula",11.99,FALSE,"F6-4",NA,NA,"5de27242d521a00010b48e20"
"4404",9,0,7,"high_mountains",3.99,FALSE,"F6-4",NA,NA,"5de27242d521a00010b48e20"
"4405",9,0,8,"disaronno",29.99,FALSE,"F6-4",NA,NA,"5de27242d521a00010b48e20"
"4406",9,0,9,"averna",14.99,FALSE,"F6-4",NA,NA,"5de27242d521a00010b48e20"
"4407",9,0,10,"baileys_1000ml",14.99,FALSE,"F6-4",NA,18.99,"5de27242d521a00010b48e20"
"4498",5,0,0,"rotkappchen",4.99,FALSE,"F5-fill_5",NA,NA,"5de27259d521a00010b48e29"
"4499",5,0,1,"malibu",12.99,FALSE,"F5-fill_5",NA,NA,"5de27259d521a00010b48e29"
"4500",5,0,2,"lillet",12.99,FALSE,"F5-fill_5",NA,NA,"5de27259d521a00010b48e29"
"4501",5,0,3,"12_ouzo_reg",10.99,FALSE,"F5-fill_5",NA,NA,"5de27259d521a00010b48e29"
"4502",5,0,4,"blanchet_white",6.99,FALSE,"F5-fill_5",NA,NA,"5de27259d521a00010b48e29"
"4503",5,0,5,"gordons_export_large",14.99,FALSE,"F5-fill_5",NA,NA,"5de27259d521a00010b48e29"
"4504",5,0,6,"gordons_export",11.99,FALSE,"F5-fill_5",NA,NA,"5de27259d521a00010b48e29"
"4505",5,0,7,"blanchet_red",6.99,TRUE,"F5-fill_5",28088,9.99,"5de27259d521a00010b48e29"
"4506",5,0,8,"smirnoff_de",12.99,FALSE,"F5-fill_5",NA,NA,"5de27259d521a00010b48e29"
"4507",6,0,0,"amarula",11.99,FALSE,"F5-1",NA,NA,"5de27259d521a00010b48e29"
"4508",6,0,1,"disaronno",29.99,FALSE,"F5-1",NA,NA,"5de27259d521a00010b48e29"
"4509",6,0,2,"ramazzotti",11.99,FALSE,"F5-1",NA,NA,"5de27259d521a00010b48e29"
"4510",6,0,3,"averna",14.99,FALSE,"F5-1",NA,NA,"5de27259d521a00010b48e29"
"4511",6,0,4,"licor_43",11.99,FALSE,"F5-1",NA,NA,"5de27259d521a00010b48e29"
"4512",6,0,5,"12_ouzo_reg",8.99,FALSE,"F5-1",NA,NA,"5de27259d521a00010b48e29"
"4513",6,0,6,"jagermeister",13.99,FALSE,"F5-1",NA,NA,"5de27259d521a00010b48e29"
"4514",6,0,7,"baileys_700ml",14.99,TRUE,"F5-1",11575,NA,"5de27259d521a00010b48e29"
"4515",6,0,8,"kronenhof_advocaat",3.99,FALSE,"F5-1",NA,NA,"5de27259d521a00010b48e29"
"4516",6,0,9,"high_mountains",3.99,FALSE,"F5-1",NA,NA,"5de27259d521a00010b48e29"
"4517",7,0,0,"blanchet_red",6.99,FALSE,"F5-fill_1",NA,13.99,"5de27259d521a00010b48e29"
"4518",7,0,1,"rotkappchen",4.99,FALSE,"F5-fill_1",NA,NA,"5de27259d521a00010b48e29"
"4519",7,0,2,"12_ouzo_reg",10.99,TRUE,"F5-fill_1",5306,16.99,"5de27259d521a00010b48e29"
"4520",7,0,3,"malibu",12.99,FALSE,"F5-fill_1",NA,NA,"5de27259d521a00010b48e29"
"4521",7,0,4,"lillet",12.99,FALSE,"F5-fill_1",NA,16.99,"5de27259d521a00010b48e29"
"4522",7,0,5,"gordons_export",11.99,FALSE,"F5-fill_1",NA,NA,"5de27259d521a00010b48e29"
"4523",7,0,6,"gordons_export_large",14.99,FALSE,"F5-fill_1",NA,NA,"5de27259d521a00010b48e29"
"4524",7,0,7,"blanchet_white",6.99,FALSE,"F5-fill_1",NA,9.99,"5de27259d521a00010b48e29"
"4525",7,0,8,"smirnoff_de",12.99,FALSE,"F5-fill_1",NA,NA,"5de27259d521a00010b48e29"
"4526",8,0,0,"amarula",11.99,FALSE,"F6-1",NA,NA,"5de27259d521a00010b48e29"
"4527",8,0,1,"jagermeister",13.99,FALSE,"F6-1",NA,NA,"5de27259d521a00010b48e29"
"4528",8,0,2,"kronenhof_advocaat",3.99,FALSE,"F6-1",NA,NA,"5de27259d521a00010b48e29"
"4529",8,0,3,"high_mountains",3.99,FALSE,"F6-1",NA,NA,"5de27259d521a00010b48e29"
"4530",8,0,4,"12_ouzo_reg",8.99,FALSE,"F6-1",NA,NA,"5de27259d521a00010b48e29"
"4531",8,0,5,"disaronno",29.99,FALSE,"F6-1",NA,NA,"5de27259d521a00010b48e29"
"4532",8,0,6,"ramazzotti",11.99,FALSE,"F6-1",NA,NA,"5de27259d521a00010b48e29"
"4533",8,0,7,"baileys_1000ml",17.99,TRUE,"F6-1",3190,18.99,"5de27259d521a00010b48e29"
"4534",8,0,8,"baileys_700ml",12.99,FALSE,"F6-1",NA,NA,"5de27259d521a00010b48e29"
"4535",8,0,9,"licor_43",11.99,FALSE,"F6-1",NA,NA,"5de27259d521a00010b48e29"
"4536",8,0,10,"averna",14.99,FALSE,"F6-1",NA,NA,"5de27259d521a00010b48e29"
"4537",9,0,0,"ramazzotti",11.99,FALSE,"F5-5",NA,NA,"5de27259d521a00010b48e29"
"4538",9,0,1,"averna",14.99,FALSE,"F5-5",NA,NA,"5de27259d521a00010b48e29"
"4539",9,0,2,"high_mountains",3.99,FALSE,"F5-5",NA,NA,"5de27259d521a00010b48e29"
"4540",9,0,3,"jagermeister",13.99,TRUE,"F5-5",11039,NA,"5de27259d521a00010b48e29"
"4541",9,0,4,"12_ouzo_reg",8.99,FALSE,"F5-5",NA,NA,"5de27259d521a00010b48e29"
"4542",9,0,5,"baileys_700ml",10.99,FALSE,"F5-5",NA,NA,"5de27259d521a00010b48e29"
"4543",9,0,6,"kronenhof_advocaat",3.99,FALSE,"F5-5",NA,NA,"5de27259d521a00010b48e29"
"4544",9,0,7,"licor_43",11.99,FALSE,"F5-5",NA,NA,"5de27259d521a00010b48e29"
"4545",9,0,8,"disaronno",29.99,FALSE,"F5-5",NA,NA,"5de27259d521a00010b48e29"
"4546",9,0,9,"amarula",11.99,FALSE,"F5-5",NA,NA,"5de27259d521a00010b48e29"
"4547",10,0,0,"baileys_700ml",12.99,TRUE,"F5-3",16404,NA,"5de27259d521a00010b48e29"
"4548",10,0,1,"licor_43",11.99,FALSE,"F5-3",NA,NA,"5de27259d521a00010b48e29"
"4549",10,0,2,"kronenhof_advocaat",3.99,FALSE,"F5-3",NA,NA,"5de27259d521a00010b48e29"
"4550",10,0,3,"high_mountains",3.99,FALSE,"F5-3",NA,NA,"5de27259d521a00010b48e29"
"4551",10,0,4,"averna",14.99,FALSE,"F5-3",NA,NA,"5de27259d521a00010b48e29"
"4552",10,0,5,"amarula",11.99,FALSE,"F5-3",NA,NA,"5de27259d521a00010b48e29"
"4553",10,0,6,"ramazzotti",11.99,FALSE,"F5-3",NA,NA,"5de27259d521a00010b48e29"
"4554",10,0,7,"12_ouzo_reg",8.99,FALSE,"F5-3",NA,NA,"5de27259d521a00010b48e29"
"4555",10,0,8,"disaronno",29.99,FALSE,"F5-3",NA,NA,"5de27259d521a00010b48e29"
"4556",10,0,9,"jagermeister",13.99,FALSE,"F5-3",NA,NA,"5de27259d521a00010b48e29"
"4557",11,0,0,"12_ouzo_reg",10.99,FALSE,"F5-fill_4",NA,NA,"5de27259d521a00010b48e29"
"4558",11,0,1,"blanchet_white",6.99,FALSE,"F5-fill_4",NA,NA,"5de27259d521a00010b48e29"
"4559",11,0,2,"lillet",12.99,FALSE,"F5-fill_4",NA,NA,"5de27259d521a00010b48e29"
"4560",11,0,3,"gordons_export",11.99,FALSE,"F5-fill_4",NA,NA,"5de27259d521a00010b48e29"
"4561",11,0,4,"rotkappchen",4.99,FALSE,"F5-fill_4",NA,NA,"5de27259d521a00010b48e29"
"4562",11,0,5,"blanchet_red",6.99,TRUE,"F5-fill_4",3582,NA,"5de27259d521a00010b48e29"
"4563",11,0,6,"gordons_export_large",14.99,FALSE,"F5-fill_4",NA,NA,"5de27259d521a00010b48e29"
"4564",11,0,7,"smirnoff_de",12.99,FALSE,"F5-fill_4",NA,19.99,"5de27259d521a00010b48e29"
"4565",11,0,8,"malibu",12.99,FALSE,"F5-fill_4",NA,NA,"5de27259d521a00010b48e29"
"4566",12,0,0,"amarula",11.99,FALSE,"F6-2",NA,NA,"5de27259d521a00010b48e29"
"4567",12,0,1,"baileys_1000ml",16.99,TRUE,"F6-2",3150,18.99,"5de27259d521a00010b48e29"
"4568",12,0,2,"jagermeister",13.99,FALSE,"F6-2",NA,NA,"5de27259d521a00010b48e29"
"4569",12,0,3,"baileys_700ml",12.99,FALSE,"F6-2",NA,NA,"5de27259d521a00010b48e29"
"4570",12,0,4,"high_mountains",3.99,FALSE,"F6-2",NA,NA,"5de27259d521a00010b48e29"
"4571",12,0,5,"disaronno",29.99,FALSE,"F6-2",NA,NA,"5de27259d521a00010b48e29"
"4572",12,0,6,"12_ouzo_reg",8.99,FALSE,"F6-2",NA,NA,"5de27259d521a00010b48e29"
"4573",12,0,7,"ramazzotti",11.99,FALSE,"F6-2",NA,NA,"5de27259d521a00010b48e29"
"4574",12,0,8,"averna",14.99,FALSE,"F6-2",NA,NA,"5de27259d521a00010b48e29"
"4575",12,0,9,"kronenhof_advocaat",3.99,FALSE,"F6-2",NA,NA,"5de27259d521a00010b48e29"
"4576",12,0,10,"licor_43",11.99,FALSE,"F6-2",NA,NA,"5de27259d521a00010b48e29"
"4577",13,0,0,"disaronno",29.99,FALSE,"F6-5",NA,NA,"5de27259d521a00010b48e29"
"4578",13,0,1,"12_ouzo_reg",8.99,FALSE,"F6-5",NA,NA,"5de27259d521a00010b48e29"
"4579",13,0,2,"amarula",11.99,FALSE,"F6-5",NA,NA,"5de27259d521a00010b48e29"
"4580",13,0,3,"jagermeister",13.99,FALSE,"F6-5",NA,NA,"5de27259d521a00010b48e29"
"4581",13,0,4,"baileys_1000ml",13.99,TRUE,"F6-5",6784,18.99,"5de27259d521a00010b48e29"
"4582",13,0,5,"high_mountains",3.99,FALSE,"F6-5",NA,NA,"5de27259d521a00010b48e29"
"4583",13,0,6,"ramazzotti",11.99,FALSE,"F6-5",NA,NA,"5de27259d521a00010b48e29"
"4584",13,0,7,"baileys_700ml",12.99,FALSE,"F6-5",NA,NA,"5de27259d521a00010b48e29"
"4585",13,0,8,"kronenhof_advocaat",3.99,FALSE,"F6-5",NA,NA,"5de27259d521a00010b48e29"
"4586",13,0,9,"licor_43",11.99,FALSE,"F6-5",NA,NA,"5de27259d521a00010b48e29"
"4587",13,0,10,"averna",14.99,FALSE,"F6-5",NA,NA,"5de27259d521a00010b48e29"
"4684",0,0,0,"gordons_export_large",14.99,FALSE,"F5-fill_4",NA,NA,"5de27bb4625af00010e799ab"
"4685",0,0,1,"gordons_export",11.99,FALSE,"F5-fill_4",NA,NA,"5de27bb4625af00010e799ab"
"4686",0,0,2,"12_ouzo_reg",10.99,FALSE,"F5-fill_4",NA,NA,"5de27bb4625af00010e799ab"
"4687",0,0,3,"rotkappchen",4.99,TRUE,"F5-fill_4",13148,NA,"5de27bb4625af00010e799ab"
"4688",0,0,4,"blanchet_white",6.99,FALSE,"F5-fill_4",NA,NA,"5de27bb4625af00010e799ab"
"4689",0,0,5,"malibu",12.99,FALSE,"F5-fill_4",NA,NA,"5de27bb4625af00010e799ab"
"4690",0,0,6,"smirnoff_de",12.99,FALSE,"F5-fill_4",NA,19.99,"5de27bb4625af00010e799ab"
"4691",0,0,7,"blanchet_red",6.99,FALSE,"F5-fill_4",NA,NA,"5de27bb4625af00010e799ab"
"4692",0,0,8,"lillet",12.99,FALSE,"F5-fill_4",NA,NA,"5de27bb4625af00010e799ab"
"4693",1,0,0,"rotkappchen",4.99,FALSE,"F5-fill_5",NA,NA,"5de27bb4625af00010e799ab"
"4694",1,0,1,"lillet",12.99,FALSE,"F5-fill_5",NA,NA,"5de27bb4625af00010e799ab"
"4695",1,0,2,"12_ouzo_reg",10.99,FALSE,"F5-fill_5",NA,NA,"5de27bb4625af00010e799ab"
"4696",1,0,3,"gordons_export_large",14.99,FALSE,"F5-fill_5",NA,NA,"5de27bb4625af00010e799ab"
"4697",1,0,4,"blanchet_red",6.99,TRUE,"F5-fill_5",3070,9.99,"5de27bb4625af00010e799ab"
"4698",1,0,5,"malibu",12.99,FALSE,"F5-fill_5",NA,NA,"5de27bb4625af00010e799ab"
"4699",1,0,6,"gordons_export",11.99,FALSE,"F5-fill_5",NA,NA,"5de27bb4625af00010e799ab"
"4700",1,0,7,"blanchet_white",6.99,FALSE,"F5-fill_5",NA,NA,"5de27bb4625af00010e799ab"
"4701",1,0,8,"smirnoff_de",12.99,FALSE,"F5-fill_5",NA,NA,"5de27bb4625af00010e799ab"
"4702",2,0,0,"licor_43",11.99,FALSE,"F5-3",NA,NA,"5de27bb4625af00010e799ab"
"4703",2,0,1,"amarula",11.99,FALSE,"F5-3",NA,NA,"5de27bb4625af00010e799ab"
"4704",2,0,2,"high_mountains",3.99,FALSE,"F5-3",NA,NA,"5de27bb4625af00010e799ab"
"4705",2,0,3,"baileys_700ml",12.99,TRUE,"F5-3",3138,NA,"5de27bb4625af00010e799ab"
"4706",2,0,4,"kronenhof_advocaat",3.99,FALSE,"F5-3",NA,NA,"5de27bb4625af00010e799ab"
"4707",2,0,5,"disaronno",29.99,FALSE,"F5-3",NA,NA,"5de27bb4625af00010e799ab"
"4708",2,0,6,"12_ouzo_reg",8.99,FALSE,"F5-3",NA,NA,"5de27bb4625af00010e799ab"
"4709",2,0,7,"jagermeister",13.99,FALSE,"F5-3",NA,NA,"5de27bb4625af00010e799ab"
"4710",2,0,8,"averna",14.99,FALSE,"F5-3",NA,NA,"5de27bb4625af00010e799ab"
"4711",2,0,9,"ramazzotti",11.99,FALSE,"F5-3",NA,NA,"5de27bb4625af00010e799ab"
"4712",3,0,0,"high_mountains",3.99,FALSE,"F5-4",NA,NA,"5de27bb4625af00010e799ab"
"4713",3,0,1,"12_ouzo_reg",8.99,FALSE,"F5-4",NA,NA,"5de27bb4625af00010e799ab"
"4714",3,0,2,"amarula",11.99,FALSE,"F5-4",NA,NA,"5de27bb4625af00010e799ab"
"4715",3,0,3,"baileys_700ml",11.99,FALSE,"F5-4",NA,NA,"5de27bb4625af00010e799ab"
"4716",3,0,4,"ramazzotti",11.99,FALSE,"F5-4",NA,NA,"5de27bb4625af00010e799ab"
"4717",3,0,5,"disaronno",29.99,FALSE,"F5-4",NA,NA,"5de27bb4625af00010e799ab"
"4718",3,0,6,"jagermeister",13.99,TRUE,"F5-4",4491,NA,"5de27bb4625af00010e799ab"
"4719",3,0,7,"averna",14.99,FALSE,"F5-4",NA,NA,"5de27bb4625af00010e799ab"
"4720",3,0,8,"licor_43",11.99,FALSE,"F5-4",NA,NA,"5de27bb4625af00010e799ab"
"4721",3,0,9,"kronenhof_advocaat",3.99,FALSE,"F5-4",NA,NA,"5de27bb4625af00010e799ab"
"4722",4,0,0,"baileys_1000ml",16.99,TRUE,"F6-2",1854,18.99,"5de27bb4625af00010e799ab"
"4723",4,0,1,"kronenhof_advocaat",3.99,FALSE,"F6-2",NA,NA,"5de27bb4625af00010e799ab"
"4724",4,0,2,"disaronno",29.99,FALSE,"F6-2",NA,NA,"5de27bb4625af00010e799ab"
"4725",4,0,3,"12_ouzo_reg",8.99,FALSE,"F6-2",NA,NA,"5de27bb4625af00010e799ab"
"4726",4,0,4,"amarula",11.99,FALSE,"F6-2",NA,NA,"5de27bb4625af00010e799ab"
"4727",4,0,5,"licor_43",11.99,FALSE,"F6-2",NA,NA,"5de27bb4625af00010e799ab"
"4728",4,0,6,"jagermeister",13.99,FALSE,"F6-2",NA,NA,"5de27bb4625af00010e799ab"
"4729",4,0,7,"averna",14.99,FALSE,"F6-2",NA,NA,"5de27bb4625af00010e799ab"
"4730",4,0,8,"ramazzotti",11.99,FALSE,"F6-2",NA,NA,"5de27bb4625af00010e799ab"
"4731",4,0,9,"high_mountains",3.99,FALSE,"F6-2",NA,NA,"5de27bb4625af00010e799ab"
