"","trial_index","shelf_index","product_index","product","price","selected","scenario","latency","pre_discounted","id.session"
"4215",0,0,0,"bushmills_small",26.99,FALSE,"H5-4",NA,NA,"5de26b61625af00010e7952d"
"4216",0,0,1,"kahlua",23.99,FALSE,"H5-4",NA,NA,"5de26b61625af00010e7952d"
"4217",0,0,2,"grand_marnier",30.99,FALSE,"H5-4",NA,NA,"5de26b61625af00010e7952d"
"4218",0,0,3,"saint_brendans",17.99,FALSE,"H5-4",NA,NA,"5de26b61625af00010e7952d"
"4219",0,0,4,"carolans_large",26.99,FALSE,"H5-4",NA,NA,"5de26b61625af00010e7952d"
"4220",0,0,5,"kerrygold",21.99,FALSE,"H5-4",NA,NA,"5de26b61625af00010e7952d"
"4221",0,0,6,"baileys_750ml_usa",24.99,TRUE,"H5-4",6597,NA,"5de26b61625af00010e7952d"
"4222",0,0,7,"five_farms",34.99,FALSE,"H5-4",NA,NA,"5de26b61625af00010e7952d"
"4223",0,0,8,"bushmills_large",42.99,FALSE,"H5-4",NA,NA,"5de26b61625af00010e7952d"
"4224",0,0,9,"carolans_small",17.99,FALSE,"H5-4",NA,NA,"5de26b61625af00010e7952d"
"4225",1,0,0,"smirnoff_usa_large",23.99,FALSE,"H7-fill_3",NA,NA,"5de26b61625af00010e7952d"
"4226",1,0,1,"tullamore_dew",30.99,FALSE,"H7-fill_3",NA,NA,"5de26b61625af00010e7952d"
"4227",1,0,2,"rum_chata_us",24.99,FALSE,"H7-fill_3",NA,30.99,"5de26b61625af00010e7952d"
"4228",1,0,3,"yellow_tail_white",10.99,FALSE,"H7-fill_3",NA,NA,"5de26b61625af00010e7952d"
"4229",1,0,4,"malibu_imported_large",23.99,FALSE,"H7-fill_3",NA,NA,"5de26b61625af00010e7952d"
"4230",1,0,5,"yellow_tail_red",10.99,FALSE,"H7-fill_3",NA,NA,"5de26b61625af00010e7952d"
"4231",1,0,6,"tanqueray_imported",25.99,FALSE,"H7-fill_3",NA,NA,"5de26b61625af00010e7952d"
"4232",1,0,7,"malibu_imported",17.99,FALSE,"H7-fill_3",NA,23.99,"5de26b61625af00010e7952d"
"4233",1,0,8,"smirnoff_usa",16.99,TRUE,"H7-fill_3",3419,NA,"5de26b61625af00010e7952d"
"4234",2,0,0,"yellow_tail_white",10.99,FALSE,"H6-fill_4",NA,NA,"5de26b61625af00010e7952d"
"4235",2,0,1,"yellow_tail_red",10.99,FALSE,"H6-fill_4",NA,NA,"5de26b61625af00010e7952d"
"4236",2,0,2,"malibu_imported_large",23.99,FALSE,"H6-fill_4",NA,NA,"5de26b61625af00010e7952d"
"4237",2,0,3,"rum_chata_us",24.99,FALSE,"H6-fill_4",NA,27.99,"5de26b61625af00010e7952d"
"4238",2,0,4,"smirnoff_usa_large",23.99,FALSE,"H6-fill_4",NA,NA,"5de26b61625af00010e7952d"
"4239",2,0,5,"tanqueray_imported",25.99,FALSE,"H6-fill_4",NA,NA,"5de26b61625af00010e7952d"
"4240",2,0,6,"tullamore_dew",30.99,FALSE,"H6-fill_4",NA,35.99,"5de26b61625af00010e7952d"
"4241",2,0,7,"smirnoff_usa",16.99,TRUE,"H6-fill_4",1228,NA,"5de26b61625af00010e7952d"
"4242",2,0,8,"malibu_imported",17.99,FALSE,"H6-fill_4",NA,NA,"5de26b61625af00010e7952d"
"4243",3,0,0,"smirnoff_usa_large",23.99,FALSE,"H5-fill_5",NA,NA,"5de26b61625af00010e7952d"
"4244",3,0,1,"tullamore_dew",30.99,FALSE,"H5-fill_5",NA,36.99,"5de26b61625af00010e7952d"
"4245",3,0,2,"rum_chata_us",24.99,TRUE,"H5-fill_5",2265,26.99,"5de26b61625af00010e7952d"
"4246",3,0,3,"smirnoff_usa",16.99,FALSE,"H5-fill_5",NA,17.99,"5de26b61625af00010e7952d"
"4247",3,0,4,"malibu_imported",17.99,FALSE,"H5-fill_5",NA,NA,"5de26b61625af00010e7952d"
"4248",3,0,5,"yellow_tail_red",10.99,FALSE,"H5-fill_5",NA,17.99,"5de26b61625af00010e7952d"
"4249",3,0,6,"tanqueray_imported",25.99,FALSE,"H5-fill_5",NA,NA,"5de26b61625af00010e7952d"
"4250",3,0,7,"yellow_tail_white",10.99,FALSE,"H5-fill_5",NA,NA,"5de26b61625af00010e7952d"
"4251",3,0,8,"malibu_imported_large",23.99,FALSE,"H5-fill_5",NA,NA,"5de26b61625af00010e7952d"
"4252",4,0,0,"kerrygold",21.99,FALSE,"H6-6",NA,NA,"5de26b61625af00010e7952d"
"4253",4,0,1,"saint_brendans",17.99,FALSE,"H6-6",NA,NA,"5de26b61625af00010e7952d"
"4254",4,0,2,"carolans_small",17.99,FALSE,"H6-6",NA,NA,"5de26b61625af00010e7952d"
"4255",4,0,3,"kahlua",23.99,TRUE,"H6-6",1165,NA,"5de26b61625af00010e7952d"
"4256",4,0,4,"bushmills_large",42.99,FALSE,"H6-6",NA,NA,"5de26b61625af00010e7952d"
"4257",4,0,5,"baileys_750ml_usa",20.99,FALSE,"H6-6",NA,29.99,"5de26b61625af00010e7952d"
"4258",4,0,6,"five_farms",34.99,FALSE,"H6-6",NA,NA,"5de26b61625af00010e7952d"
"4259",4,0,7,"bushmills_small",26.99,FALSE,"H6-6",NA,NA,"5de26b61625af00010e7952d"
"4260",4,0,8,"grand_marnier",30.99,FALSE,"H6-6",NA,NA,"5de26b61625af00010e7952d"
"4261",4,0,9,"carolans_large",26.99,FALSE,"H6-6",NA,NA,"5de26b61625af00010e7952d"
"4262",5,0,0,"bushmills_large",42.99,FALSE,"H5-1",NA,NA,"5de26b61625af00010e7952d"
"4263",5,0,1,"carolans_small",17.99,FALSE,"H5-1",NA,NA,"5de26b61625af00010e7952d"
"4264",5,0,2,"five_farms",34.99,FALSE,"H5-1",NA,NA,"5de26b61625af00010e7952d"
"4265",5,0,3,"baileys_750ml_usa",30.99,FALSE,"H5-1",NA,NA,"5de26b61625af00010e7952d"
"4266",5,0,4,"carolans_large",26.99,TRUE,"H5-1",453,NA,"5de26b61625af00010e7952d"
"4267",5,0,5,"kahlua",23.99,FALSE,"H5-1",NA,NA,"5de26b61625af00010e7952d"
"4268",5,0,6,"kerrygold",21.99,FALSE,"H5-1",NA,NA,"5de26b61625af00010e7952d"
"4269",5,0,7,"saint_brendans",17.99,FALSE,"H5-1",NA,NA,"5de26b61625af00010e7952d"
"4270",5,0,8,"bushmills_small",26.99,FALSE,"H5-1",NA,NA,"5de26b61625af00010e7952d"
"4271",5,0,9,"grand_marnier",30.99,FALSE,"H5-1",NA,NA,"5de26b61625af00010e7952d"
"4272",6,0,0,"saint_brendans",17.99,FALSE,"H6-5",NA,NA,"5de26b61625af00010e7952d"
"4273",6,0,1,"bushmills_small",26.99,FALSE,"H6-5",NA,NA,"5de26b61625af00010e7952d"
"4274",6,0,2,"bushmills_large",42.99,TRUE,"H6-5",183,NA,"5de26b61625af00010e7952d"
"4275",6,0,3,"kerrygold",21.99,FALSE,"H6-5",NA,NA,"5de26b61625af00010e7952d"
"4276",6,0,4,"five_farms",34.99,FALSE,"H6-5",NA,NA,"5de26b61625af00010e7952d"
"4277",6,0,5,"carolans_small",17.99,FALSE,"H6-5",NA,NA,"5de26b61625af00010e7952d"
"4278",6,0,6,"baileys_750ml_usa",21.99,FALSE,"H6-5",NA,29.99,"5de26b61625af00010e7952d"
"4279",6,0,7,"grand_marnier",30.99,FALSE,"H6-5",NA,NA,"5de26b61625af00010e7952d"
"4280",6,0,8,"kahlua",23.99,FALSE,"H6-5",NA,NA,"5de26b61625af00010e7952d"
"4281",6,0,9,"carolans_large",26.99,FALSE,"H6-5",NA,NA,"5de26b61625af00010e7952d"
"4282",7,0,0,"carolans_small",17.99,FALSE,"H5-3",NA,NA,"5de26b61625af00010e7952d"
"4283",7,0,1,"grand_marnier",30.99,FALSE,"H5-3",NA,NA,"5de26b61625af00010e7952d"
"4284",7,0,2,"kahlua",23.99,FALSE,"H5-3",NA,NA,"5de26b61625af00010e7952d"
"4285",7,0,3,"bushmills_large",42.99,FALSE,"H5-3",NA,NA,"5de26b61625af00010e7952d"
"4286",7,0,4,"saint_brendans",17.99,FALSE,"H5-3",NA,NA,"5de26b61625af00010e7952d"
"4287",7,0,5,"baileys_750ml_usa",26.99,TRUE,"H5-3",169,NA,"5de26b61625af00010e7952d"
"4288",7,0,6,"bushmills_small",26.99,FALSE,"H5-3",NA,NA,"5de26b61625af00010e7952d"
"4289",7,0,7,"five_farms",34.99,FALSE,"H5-3",NA,NA,"5de26b61625af00010e7952d"
"4290",7,0,8,"kerrygold",21.99,FALSE,"H5-3",NA,NA,"5de26b61625af00010e7952d"
"4291",7,0,9,"carolans_large",26.99,FALSE,"H5-3",NA,NA,"5de26b61625af00010e7952d"
"4292",8,0,0,"yellow_tail_red",10.99,FALSE,"H7-fill_2",NA,NA,"5de26b61625af00010e7952d"
"4293",8,0,1,"malibu_imported",17.99,FALSE,"H7-fill_2",NA,NA,"5de26b61625af00010e7952d"
"4294",8,0,2,"smirnoff_usa_large",23.99,FALSE,"H7-fill_2",NA,NA,"5de26b61625af00010e7952d"
"4295",8,0,3,"tullamore_dew",30.99,TRUE,"H7-fill_2",217,NA,"5de26b61625af00010e7952d"
"4296",8,0,4,"smirnoff_usa",16.99,FALSE,"H7-fill_2",NA,NA,"5de26b61625af00010e7952d"
"4297",8,0,5,"rum_chata_us",24.99,FALSE,"H7-fill_2",NA,30.99,"5de26b61625af00010e7952d"
"4298",8,0,6,"malibu_imported_large",23.99,FALSE,"H7-fill_2",NA,NA,"5de26b61625af00010e7952d"
"4299",8,0,7,"tanqueray_imported",25.99,FALSE,"H7-fill_2",NA,NA,"5de26b61625af00010e7952d"
"4300",8,0,8,"yellow_tail_white",10.99,FALSE,"H7-fill_2",NA,NA,"5de26b61625af00010e7952d"
"4301",9,0,0,"malibu_imported",17.99,FALSE,"H6-fill_3",NA,18.99,"5de26b61625af00010e7952d"
"4302",9,0,1,"smirnoff_usa_large",23.99,FALSE,"H6-fill_3",NA,NA,"5de26b61625af00010e7952d"
"4303",9,0,2,"smirnoff_usa",16.99,FALSE,"H6-fill_3",NA,21.99,"5de26b61625af00010e7952d"
"4304",9,0,3,"malibu_imported_large",23.99,TRUE,"H6-fill_3",374,24.99,"5de26b61625af00010e7952d"
"4305",9,0,4,"yellow_tail_white",10.99,FALSE,"H6-fill_3",NA,NA,"5de26b61625af00010e7952d"
"4306",9,0,5,"tullamore_dew",30.99,FALSE,"H6-fill_3",NA,NA,"5de26b61625af00010e7952d"
"4307",9,0,6,"rum_chata_us",24.99,FALSE,"H6-fill_3",NA,NA,"5de26b61625af00010e7952d"
"4308",9,0,7,"yellow_tail_red",10.99,FALSE,"H6-fill_3",NA,NA,"5de26b61625af00010e7952d"
"4309",9,0,8,"tanqueray_imported",25.99,FALSE,"H6-fill_3",NA,29.99,"5de26b61625af00010e7952d"
"4588",0,0,0,"yellow_tail_white",10.99,FALSE,"H6-fill_1",NA,18.99,"5de26c79625af00010e7956b"
"4589",0,0,1,"malibu_imported_large",23.99,FALSE,"H6-fill_1",NA,31.99,"5de26c79625af00010e7956b"
"4590",0,0,2,"tullamore_dew",30.99,FALSE,"H6-fill_1",NA,NA,"5de26c79625af00010e7956b"
"4591",0,0,3,"rum_chata_us",24.99,FALSE,"H6-fill_1",NA,NA,"5de26c79625af00010e7956b"
"4592",0,0,4,"smirnoff_usa",16.99,FALSE,"H6-fill_1",NA,NA,"5de26c79625af00010e7956b"
"4593",0,0,5,"smirnoff_usa_large",23.99,FALSE,"H6-fill_1",NA,NA,"5de26c79625af00010e7956b"
"4594",0,0,6,"yellow_tail_red",10.99,FALSE,"H6-fill_1",NA,16.99,"5de26c79625af00010e7956b"
"4595",0,0,7,"tanqueray_imported",25.99,TRUE,"H6-fill_1",10892,26.99,"5de26c79625af00010e7956b"
"4596",0,0,8,"malibu_imported",17.99,FALSE,"H6-fill_1",NA,NA,"5de26c79625af00010e7956b"
"4597",1,0,0,"bushmills_large",42.99,FALSE,"H6-6",NA,NA,"5de26c79625af00010e7956b"
"4598",1,0,1,"saint_brendans",17.99,FALSE,"H6-6",NA,NA,"5de26c79625af00010e7956b"
"4599",1,0,2,"kerrygold",21.99,FALSE,"H6-6",NA,NA,"5de26c79625af00010e7956b"
"4600",1,0,3,"five_farms",34.99,FALSE,"H6-6",NA,NA,"5de26c79625af00010e7956b"
"4601",1,0,4,"kahlua",23.99,FALSE,"H6-6",NA,NA,"5de26c79625af00010e7956b"
"4602",1,0,5,"bushmills_small",26.99,FALSE,"H6-6",NA,NA,"5de26c79625af00010e7956b"
"4603",1,0,6,"grand_marnier",30.99,TRUE,"H6-6",4385,NA,"5de26c79625af00010e7956b"
"4604",1,0,7,"carolans_small",17.99,FALSE,"H6-6",NA,NA,"5de26c79625af00010e7956b"
"4605",1,0,8,"carolans_large",26.99,FALSE,"H6-6",NA,NA,"5de26c79625af00010e7956b"
"4606",1,0,9,"baileys_750ml_usa",20.99,FALSE,"H6-6",NA,29.99,"5de26c79625af00010e7956b"
"4607",2,0,0,"tanqueray_imported",25.99,FALSE,"H6-fill_6",NA,NA,"5de26c79625af00010e7956b"
"4608",2,0,1,"smirnoff_usa",16.99,FALSE,"H6-fill_6",NA,NA,"5de26c79625af00010e7956b"
"4609",2,0,2,"malibu_imported",17.99,FALSE,"H6-fill_6",NA,20.99,"5de26c79625af00010e7956b"
"4610",2,0,3,"malibu_imported_large",23.99,FALSE,"H6-fill_6",NA,NA,"5de26c79625af00010e7956b"
"4611",2,0,4,"tullamore_dew",30.99,FALSE,"H6-fill_6",NA,32.99,"5de26c79625af00010e7956b"
"4612",2,0,5,"smirnoff_usa_large",23.99,TRUE,"H6-fill_6",5170,NA,"5de26c79625af00010e7956b"
"4613",2,0,6,"yellow_tail_white",10.99,FALSE,"H6-fill_6",NA,NA,"5de26c79625af00010e7956b"
"4614",2,0,7,"rum_chata_us",24.99,FALSE,"H6-fill_6",NA,NA,"5de26c79625af00010e7956b"
"4615",2,0,8,"yellow_tail_red",10.99,FALSE,"H6-fill_6",NA,NA,"5de26c79625af00010e7956b"
"4616",3,0,0,"baileys_750ml_usa",25.99,FALSE,"H6-1",NA,29.99,"5de26c79625af00010e7956b"
"4617",3,0,1,"bushmills_large",42.99,FALSE,"H6-1",NA,NA,"5de26c79625af00010e7956b"
"4618",3,0,2,"carolans_large",26.99,FALSE,"H6-1",NA,NA,"5de26c79625af00010e7956b"
"4619",3,0,3,"kerrygold",21.99,FALSE,"H6-1",NA,NA,"5de26c79625af00010e7956b"
"4620",3,0,4,"kahlua",23.99,TRUE,"H6-1",2865,NA,"5de26c79625af00010e7956b"
"4621",3,0,5,"saint_brendans",17.99,FALSE,"H6-1",NA,NA,"5de26c79625af00010e7956b"
"4622",3,0,6,"five_farms",34.99,FALSE,"H6-1",NA,NA,"5de26c79625af00010e7956b"
"4623",3,0,7,"carolans_small",17.99,FALSE,"H6-1",NA,NA,"5de26c79625af00010e7956b"
"4624",3,0,8,"grand_marnier",30.99,FALSE,"H6-1",NA,NA,"5de26c79625af00010e7956b"
"4625",3,0,9,"bushmills_small",26.99,FALSE,"H6-1",NA,NA,"5de26c79625af00010e7956b"
"4626",4,0,0,"smirnoff_usa_large",23.99,FALSE,"H7-fill_3",NA,NA,"5de26c79625af00010e7956b"
"4627",4,0,1,"smirnoff_usa",16.99,FALSE,"H7-fill_3",NA,NA,"5de26c79625af00010e7956b"
"4628",4,0,2,"tanqueray_imported",25.99,FALSE,"H7-fill_3",NA,NA,"5de26c79625af00010e7956b"
"4629",4,0,3,"tullamore_dew",30.99,FALSE,"H7-fill_3",NA,NA,"5de26c79625af00010e7956b"
"4630",4,0,4,"malibu_imported",17.99,FALSE,"H7-fill_3",NA,23.99,"5de26c79625af00010e7956b"
"4631",4,0,5,"yellow_tail_white",10.99,FALSE,"H7-fill_3",NA,NA,"5de26c79625af00010e7956b"
"4632",4,0,6,"yellow_tail_red",10.99,FALSE,"H7-fill_3",NA,NA,"5de26c79625af00010e7956b"
"4633",4,0,7,"rum_chata_us",24.99,TRUE,"H7-fill_3",2294,30.99,"5de26c79625af00010e7956b"
"4634",4,0,8,"malibu_imported_large",23.99,FALSE,"H7-fill_3",NA,NA,"5de26c79625af00010e7956b"
"4635",5,0,0,"yellow_tail_white",10.99,FALSE,"H6-fill_4",NA,NA,"5de26c79625af00010e7956b"
"4636",5,0,1,"rum_chata_us",24.99,FALSE,"H6-fill_4",NA,27.99,"5de26c79625af00010e7956b"
"4637",5,0,2,"malibu_imported",17.99,TRUE,"H6-fill_4",1195,NA,"5de26c79625af00010e7956b"
"4638",5,0,3,"malibu_imported_large",23.99,FALSE,"H6-fill_4",NA,NA,"5de26c79625af00010e7956b"
"4639",5,0,4,"tullamore_dew",30.99,FALSE,"H6-fill_4",NA,35.99,"5de26c79625af00010e7956b"
"4640",5,0,5,"yellow_tail_red",10.99,FALSE,"H6-fill_4",NA,NA,"5de26c79625af00010e7956b"
"4641",5,0,6,"smirnoff_usa",16.99,FALSE,"H6-fill_4",NA,NA,"5de26c79625af00010e7956b"
"4642",5,0,7,"smirnoff_usa_large",23.99,FALSE,"H6-fill_4",NA,NA,"5de26c79625af00010e7956b"
"4643",5,0,8,"tanqueray_imported",25.99,FALSE,"H6-fill_4",NA,NA,"5de26c79625af00010e7956b"
"4644",6,0,0,"carolans_large",26.99,FALSE,"H7-3",NA,NA,"5de26c79625af00010e7956b"
"4645",6,0,1,"carolans_small",17.99,FALSE,"H7-3",NA,NA,"5de26c79625af00010e7956b"
"4646",6,0,2,"kerrygold",21.99,FALSE,"H7-3",NA,NA,"5de26c79625af00010e7956b"
"4647",6,0,3,"five_farms",34.99,FALSE,"H7-3",NA,NA,"5de26c79625af00010e7956b"
"4648",6,0,4,"grand_marnier",30.99,FALSE,"H7-3",NA,NA,"5de26c79625af00010e7956b"
"4649",6,0,5,"bushmills_large",42.99,FALSE,"H7-3",NA,NA,"5de26c79625af00010e7956b"
"4650",6,0,6,"baileys_750ml_usa",27.99,FALSE,"H7-3",NA,NA,"5de26c79625af00010e7956b"
"4651",6,0,7,"baileys_1750ml_usa",45.99,FALSE,"H7-3",NA,56.99,"5de26c79625af00010e7956b"
"4652",6,0,8,"bushmills_small",26.99,FALSE,"H7-3",NA,NA,"5de26c79625af00010e7956b"
"4653",6,0,9,"kahlua",23.99,FALSE,"H7-3",NA,NA,"5de26c79625af00010e7956b"
"4654",6,0,10,"saint_brendans",17.99,TRUE,"H7-3",4852,NA,"5de26c79625af00010e7956b"
"4655",7,0,0,"rum_chata_us",24.99,TRUE,"H6-fill_2",2516,NA,"5de26c79625af00010e7956b"
"4656",7,0,1,"yellow_tail_white",10.99,FALSE,"H6-fill_2",NA,15.99,"5de26c79625af00010e7956b"
"4657",7,0,2,"yellow_tail_red",10.99,FALSE,"H6-fill_2",NA,NA,"5de26c79625af00010e7956b"
"4658",7,0,3,"tullamore_dew",30.99,FALSE,"H6-fill_2",NA,NA,"5de26c79625af00010e7956b"
"4659",7,0,4,"malibu_imported_large",23.99,FALSE,"H6-fill_2",NA,NA,"5de26c79625af00010e7956b"
"4660",7,0,5,"smirnoff_usa",16.99,FALSE,"H6-fill_2",NA,NA,"5de26c79625af00010e7956b"
"4661",7,0,6,"malibu_imported",17.99,FALSE,"H6-fill_2",NA,19.99,"5de26c79625af00010e7956b"
"4662",7,0,7,"smirnoff_usa_large",23.99,FALSE,"H6-fill_2",NA,NA,"5de26c79625af00010e7956b"
"4663",7,0,8,"tanqueray_imported",25.99,FALSE,"H6-fill_2",NA,30.99,"5de26c79625af00010e7956b"
"4664",8,0,0,"carolans_small",17.99,FALSE,"H5-1",NA,NA,"5de26c79625af00010e7956b"
"4665",8,0,1,"kerrygold",21.99,FALSE,"H5-1",NA,NA,"5de26c79625af00010e7956b"
"4666",8,0,2,"carolans_large",26.99,FALSE,"H5-1",NA,NA,"5de26c79625af00010e7956b"
"4667",8,0,3,"bushmills_small",26.99,FALSE,"H5-1",NA,NA,"5de26c79625af00010e7956b"
"4668",8,0,4,"saint_brendans",17.99,FALSE,"H5-1",NA,NA,"5de26c79625af00010e7956b"
"4669",8,0,5,"baileys_750ml_usa",30.99,TRUE,"H5-1",2539,NA,"5de26c79625af00010e7956b"
"4670",8,0,6,"grand_marnier",30.99,FALSE,"H5-1",NA,NA,"5de26c79625af00010e7956b"
"4671",8,0,7,"five_farms",34.99,FALSE,"H5-1",NA,NA,"5de26c79625af00010e7956b"
"4672",8,0,8,"bushmills_large",42.99,FALSE,"H5-1",NA,NA,"5de26c79625af00010e7956b"
"4673",8,0,9,"kahlua",23.99,FALSE,"H5-1",NA,NA,"5de26c79625af00010e7956b"
"4674",9,0,0,"bushmills_large",42.99,FALSE,"H5-2",NA,NA,"5de26c79625af00010e7956b"
"4675",9,0,1,"baileys_750ml_usa",28.99,FALSE,"H5-2",NA,NA,"5de26c79625af00010e7956b"
"4676",9,0,2,"carolans_large",26.99,FALSE,"H5-2",NA,NA,"5de26c79625af00010e7956b"
"4677",9,0,3,"grand_marnier",30.99,TRUE,"H5-2",1087,NA,"5de26c79625af00010e7956b"
"4678",9,0,4,"saint_brendans",17.99,FALSE,"H5-2",NA,NA,"5de26c79625af00010e7956b"
"4679",9,0,5,"kerrygold",21.99,FALSE,"H5-2",NA,NA,"5de26c79625af00010e7956b"
"4680",9,0,6,"kahlua",23.99,FALSE,"H5-2",NA,NA,"5de26c79625af00010e7956b"
"4681",9,0,7,"bushmills_small",26.99,FALSE,"H5-2",NA,NA,"5de26c79625af00010e7956b"
"4682",9,0,8,"carolans_small",17.99,FALSE,"H5-2",NA,NA,"5de26c79625af00010e7956b"
"4683",9,0,9,"five_farms",34.99,FALSE,"H5-2",NA,NA,"5de26c79625af00010e7956b"
"5162",0,0,0,"malibu_imported_large",23.99,TRUE,"H5-fill_5",9715,NA,"5de27e2bd521a00010b49427"
"5163",0,0,1,"yellow_tail_red",10.99,FALSE,"H5-fill_5",NA,17.99,"5de27e2bd521a00010b49427"
"5164",0,0,2,"rum_chata_us",24.99,FALSE,"H5-fill_5",NA,26.99,"5de27e2bd521a00010b49427"
"5165",0,0,3,"smirnoff_usa",16.99,FALSE,"H5-fill_5",NA,17.99,"5de27e2bd521a00010b49427"
"5166",0,0,4,"tullamore_dew",30.99,FALSE,"H5-fill_5",NA,36.99,"5de27e2bd521a00010b49427"
"5167",0,0,5,"tanqueray_imported",25.99,FALSE,"H5-fill_5",NA,NA,"5de27e2bd521a00010b49427"
"5168",0,0,6,"yellow_tail_white",10.99,FALSE,"H5-fill_5",NA,NA,"5de27e2bd521a00010b49427"
"5169",0,0,7,"malibu_imported",17.99,FALSE,"H5-fill_5",NA,NA,"5de27e2bd521a00010b49427"
"5170",0,0,8,"smirnoff_usa_large",23.99,FALSE,"H5-fill_5",NA,NA,"5de27e2bd521a00010b49427"
"5171",1,0,0,"tanqueray_imported",25.99,FALSE,"H6-fill_5",NA,NA,"5de27e2bd521a00010b49427"
"5172",1,0,1,"malibu_imported_large",23.99,FALSE,"H6-fill_5",NA,29.99,"5de27e2bd521a00010b49427"
"5173",1,0,2,"yellow_tail_red",10.99,FALSE,"H6-fill_5",NA,NA,"5de27e2bd521a00010b49427"
"5174",1,0,3,"malibu_imported",17.99,TRUE,"H6-fill_5",5647,NA,"5de27e2bd521a00010b49427"
"5175",1,0,4,"tullamore_dew",30.99,FALSE,"H6-fill_5",NA,34.99,"5de27e2bd521a00010b49427"
"5176",1,0,5,"yellow_tail_white",10.99,FALSE,"H6-fill_5",NA,NA,"5de27e2bd521a00010b49427"
"5177",1,0,6,"smirnoff_usa_large",23.99,FALSE,"H6-fill_5",NA,28.99,"5de27e2bd521a00010b49427"
"5178",1,0,7,"rum_chata_us",24.99,FALSE,"H6-fill_5",NA,30.99,"5de27e2bd521a00010b49427"
"5179",1,0,8,"smirnoff_usa",16.99,FALSE,"H6-fill_5",NA,NA,"5de27e2bd521a00010b49427"
"5180",2,0,0,"grand_marnier",30.99,FALSE,"H5-5",NA,NA,"5de27e2bd521a00010b49427"
"5181",2,0,1,"carolans_small",17.99,FALSE,"H5-5",NA,NA,"5de27e2bd521a00010b49427"
"5182",2,0,2,"baileys_750ml_usa",22.99,FALSE,"H5-5",NA,NA,"5de27e2bd521a00010b49427"
"5183",2,0,3,"five_farms",34.99,TRUE,"H5-5",3118,NA,"5de27e2bd521a00010b49427"
"5184",2,0,4,"bushmills_large",42.99,FALSE,"H5-5",NA,NA,"5de27e2bd521a00010b49427"
"5185",2,0,5,"saint_brendans",17.99,FALSE,"H5-5",NA,NA,"5de27e2bd521a00010b49427"
"5186",2,0,6,"kerrygold",21.99,FALSE,"H5-5",NA,NA,"5de27e2bd521a00010b49427"
"5187",2,0,7,"bushmills_small",26.99,FALSE,"H5-5",NA,NA,"5de27e2bd521a00010b49427"
"5188",2,0,8,"carolans_large",26.99,FALSE,"H5-5",NA,NA,"5de27e2bd521a00010b49427"
"5189",2,0,9,"kahlua",23.99,FALSE,"H5-5",NA,NA,"5de27e2bd521a00010b49427"
"5190",3,0,0,"carolans_large",26.99,FALSE,"H6-2",NA,NA,"5de27e2bd521a00010b49427"
"5191",3,0,1,"kahlua",23.99,FALSE,"H6-2",NA,NA,"5de27e2bd521a00010b49427"
"5192",3,0,2,"kerrygold",21.99,FALSE,"H6-2",NA,NA,"5de27e2bd521a00010b49427"
"5193",3,0,3,"bushmills_small",26.99,FALSE,"H6-2",NA,NA,"5de27e2bd521a00010b49427"
"5194",3,0,4,"grand_marnier",30.99,FALSE,"H6-2",NA,NA,"5de27e2bd521a00010b49427"
"5195",3,0,5,"carolans_small",17.99,FALSE,"H6-2",NA,NA,"5de27e2bd521a00010b49427"
"5196",3,0,6,"saint_brendans",17.99,FALSE,"H6-2",NA,NA,"5de27e2bd521a00010b49427"
"5197",3,0,7,"baileys_750ml_usa",24.99,TRUE,"H6-2",5394,29.99,"5de27e2bd521a00010b49427"
"5198",3,0,8,"five_farms",34.99,FALSE,"H6-2",NA,NA,"5de27e2bd521a00010b49427"
"5199",3,0,9,"bushmills_large",42.99,FALSE,"H6-2",NA,NA,"5de27e2bd521a00010b49427"
"5200",4,0,0,"yellow_tail_white",10.99,FALSE,"H7-fill_2",NA,NA,"5de27e2bd521a00010b49427"
"5201",4,0,1,"tullamore_dew",30.99,FALSE,"H7-fill_2",NA,NA,"5de27e2bd521a00010b49427"
"5202",4,0,2,"malibu_imported",17.99,FALSE,"H7-fill_2",NA,NA,"5de27e2bd521a00010b49427"
"5203",4,0,3,"tanqueray_imported",25.99,FALSE,"H7-fill_2",NA,NA,"5de27e2bd521a00010b49427"
"5204",4,0,4,"yellow_tail_red",10.99,FALSE,"H7-fill_2",NA,NA,"5de27e2bd521a00010b49427"
"5205",4,0,5,"smirnoff_usa_large",23.99,FALSE,"H7-fill_2",NA,NA,"5de27e2bd521a00010b49427"
"5206",4,0,6,"malibu_imported_large",23.99,TRUE,"H7-fill_2",5349,NA,"5de27e2bd521a00010b49427"
"5207",4,0,7,"smirnoff_usa",16.99,FALSE,"H7-fill_2",NA,NA,"5de27e2bd521a00010b49427"
"5208",4,0,8,"rum_chata_us",24.99,FALSE,"H7-fill_2",NA,30.99,"5de27e2bd521a00010b49427"
"5209",5,0,0,"baileys_750ml_usa",27.99,FALSE,"H7-4",NA,NA,"5de27e2bd521a00010b49427"
"5210",5,0,1,"carolans_large",26.99,FALSE,"H7-4",NA,NA,"5de27e2bd521a00010b49427"
"5211",5,0,2,"kahlua",23.99,FALSE,"H7-4",NA,NA,"5de27e2bd521a00010b49427"
"5212",5,0,3,"five_farms",34.99,FALSE,"H7-4",NA,NA,"5de27e2bd521a00010b49427"
"5213",5,0,4,"saint_brendans",17.99,FALSE,"H7-4",NA,NA,"5de27e2bd521a00010b49427"
"5214",5,0,5,"carolans_small",17.99,FALSE,"H7-4",NA,NA,"5de27e2bd521a00010b49427"
"5215",5,0,6,"bushmills_large",42.99,FALSE,"H7-4",NA,NA,"5de27e2bd521a00010b49427"
"5216",5,0,7,"grand_marnier",30.99,FALSE,"H7-4",NA,NA,"5de27e2bd521a00010b49427"
"5217",5,0,8,"bushmills_small",26.99,FALSE,"H7-4",NA,NA,"5de27e2bd521a00010b49427"
"5218",5,0,9,"kerrygold",21.99,FALSE,"H7-4",NA,NA,"5de27e2bd521a00010b49427"
"5219",5,0,10,"baileys_1750ml_usa",42.99,TRUE,"H7-4",3943,46.99,"5de27e2bd521a00010b49427"
"5220",6,0,0,"bushmills_large",42.99,FALSE,"H5-4",NA,NA,"5de27e2bd521a00010b49427"
"5221",6,0,1,"kerrygold",21.99,FALSE,"H5-4",NA,NA,"5de27e2bd521a00010b49427"
"5222",6,0,2,"kahlua",23.99,FALSE,"H5-4",NA,NA,"5de27e2bd521a00010b49427"
"5223",6,0,3,"saint_brendans",17.99,FALSE,"H5-4",NA,NA,"5de27e2bd521a00010b49427"
"5224",6,0,4,"baileys_750ml_usa",24.99,TRUE,"H5-4",4350,NA,"5de27e2bd521a00010b49427"
"5225",6,0,5,"bushmills_small",26.99,FALSE,"H5-4",NA,NA,"5de27e2bd521a00010b49427"
"5226",6,0,6,"five_farms",34.99,FALSE,"H5-4",NA,NA,"5de27e2bd521a00010b49427"
"5227",6,0,7,"carolans_small",17.99,FALSE,"H5-4",NA,NA,"5de27e2bd521a00010b49427"
"5228",6,0,8,"grand_marnier",30.99,FALSE,"H5-4",NA,NA,"5de27e2bd521a00010b49427"
"5229",6,0,9,"carolans_large",26.99,FALSE,"H5-4",NA,NA,"5de27e2bd521a00010b49427"
"5230",7,0,0,"yellow_tail_red",10.99,FALSE,"H6-fill_1",NA,16.99,"5de27e2bd521a00010b49427"
"5231",7,0,1,"malibu_imported",17.99,FALSE,"H6-fill_1",NA,NA,"5de27e2bd521a00010b49427"
"5232",7,0,2,"smirnoff_usa",16.99,FALSE,"H6-fill_1",NA,NA,"5de27e2bd521a00010b49427"
"5233",7,0,3,"smirnoff_usa_large",23.99,FALSE,"H6-fill_1",NA,NA,"5de27e2bd521a00010b49427"
"5234",7,0,4,"tullamore_dew",30.99,FALSE,"H6-fill_1",NA,NA,"5de27e2bd521a00010b49427"
"5235",7,0,5,"malibu_imported_large",23.99,TRUE,"H6-fill_1",6775,31.99,"5de27e2bd521a00010b49427"
"5236",7,0,6,"rum_chata_us",24.99,FALSE,"H6-fill_1",NA,NA,"5de27e2bd521a00010b49427"
"5237",7,0,7,"yellow_tail_white",10.99,FALSE,"H6-fill_1",NA,18.99,"5de27e2bd521a00010b49427"
"5238",7,0,8,"tanqueray_imported",25.99,FALSE,"H6-fill_1",NA,26.99,"5de27e2bd521a00010b49427"
"5239",8,0,0,"yellow_tail_white",10.99,FALSE,"H6-fill_6",NA,NA,"5de27e2bd521a00010b49427"
"5240",8,0,1,"tanqueray_imported",25.99,FALSE,"H6-fill_6",NA,NA,"5de27e2bd521a00010b49427"
"5241",8,0,2,"tullamore_dew",30.99,FALSE,"H6-fill_6",NA,32.99,"5de27e2bd521a00010b49427"
"5242",8,0,3,"smirnoff_usa_large",23.99,FALSE,"H6-fill_6",NA,NA,"5de27e2bd521a00010b49427"
"5243",8,0,4,"yellow_tail_red",10.99,FALSE,"H6-fill_6",NA,NA,"5de27e2bd521a00010b49427"
"5244",8,0,5,"malibu_imported_large",23.99,FALSE,"H6-fill_6",NA,NA,"5de27e2bd521a00010b49427"
"5245",8,0,6,"smirnoff_usa",16.99,TRUE,"H6-fill_6",3819,NA,"5de27e2bd521a00010b49427"
"5246",8,0,7,"rum_chata_us",24.99,FALSE,"H6-fill_6",NA,NA,"5de27e2bd521a00010b49427"
"5247",8,0,8,"malibu_imported",17.99,FALSE,"H6-fill_6",NA,20.99,"5de27e2bd521a00010b49427"
"5248",9,0,0,"smirnoff_usa_large",23.99,FALSE,"H5-fill_2",NA,NA,"5de27e2bd521a00010b49427"
"5249",9,0,1,"yellow_tail_white",10.99,FALSE,"H5-fill_2",NA,14.99,"5de27e2bd521a00010b49427"
"5250",9,0,2,"tanqueray_imported",25.99,FALSE,"H5-fill_2",NA,33.99,"5de27e2bd521a00010b49427"
"5251",9,0,3,"tullamore_dew",30.99,FALSE,"H5-fill_2",NA,NA,"5de27e2bd521a00010b49427"
"5252",9,0,4,"malibu_imported_large",23.99,TRUE,"H5-fill_2",2128,NA,"5de27e2bd521a00010b49427"
"5253",9,0,5,"malibu_imported",17.99,FALSE,"H5-fill_2",NA,NA,"5de27e2bd521a00010b49427"
"5254",9,0,6,"yellow_tail_red",10.99,FALSE,"H5-fill_2",NA,NA,"5de27e2bd521a00010b49427"
"5255",9,0,7,"rum_chata_us",24.99,FALSE,"H5-fill_2",NA,NA,"5de27e2bd521a00010b49427"
"5256",9,0,8,"smirnoff_usa",16.99,FALSE,"H5-fill_2",NA,19.99,"5de27e2bd521a00010b49427"
"10123",0,0,0,"yellow_tail_white",10.99,FALSE,"H5-fill_1",NA,17.99,"5de281cc625af00010e7ab2d"
"10124",0,0,1,"malibu_imported",17.99,TRUE,"H5-fill_1",13478,NA,"5de281cc625af00010e7ab2d"
"10125",0,0,2,"rum_chata_us",24.99,FALSE,"H5-fill_1",NA,NA,"5de281cc625af00010e7ab2d"
"10126",0,0,3,"smirnoff_usa_large",23.99,FALSE,"H5-fill_1",NA,NA,"5de281cc625af00010e7ab2d"
"10127",0,0,4,"malibu_imported_large",23.99,FALSE,"H5-fill_1",NA,30.99,"5de281cc625af00010e7ab2d"
"10128",0,0,5,"yellow_tail_red",10.99,FALSE,"H5-fill_1",NA,NA,"5de281cc625af00010e7ab2d"
"10129",0,0,6,"smirnoff_usa",16.99,FALSE,"H5-fill_1",NA,23.99,"5de281cc625af00010e7ab2d"
"10130",0,0,7,"tullamore_dew",30.99,FALSE,"H5-fill_1",NA,NA,"5de281cc625af00010e7ab2d"
"10131",0,0,8,"tanqueray_imported",25.99,FALSE,"H5-fill_1",NA,NA,"5de281cc625af00010e7ab2d"
"10132",1,0,0,"bushmills_large",42.99,TRUE,"H6-4",4618,NA,"5de281cc625af00010e7ab2d"
"10133",1,0,1,"carolans_small",17.99,FALSE,"H6-4",NA,NA,"5de281cc625af00010e7ab2d"
"10134",1,0,2,"grand_marnier",30.99,FALSE,"H6-4",NA,NA,"5de281cc625af00010e7ab2d"
"10135",1,0,3,"carolans_large",26.99,FALSE,"H6-4",NA,NA,"5de281cc625af00010e7ab2d"
"10136",1,0,4,"bushmills_small",26.99,FALSE,"H6-4",NA,NA,"5de281cc625af00010e7ab2d"
"10137",1,0,5,"baileys_750ml_usa",22.99,FALSE,"H6-4",NA,29.99,"5de281cc625af00010e7ab2d"
"10138",1,0,6,"saint_brendans",17.99,FALSE,"H6-4",NA,NA,"5de281cc625af00010e7ab2d"
"10139",1,0,7,"five_farms",34.99,FALSE,"H6-4",NA,NA,"5de281cc625af00010e7ab2d"
"10140",1,0,8,"kahlua",23.99,FALSE,"H6-4",NA,NA,"5de281cc625af00010e7ab2d"
"10141",1,0,9,"kerrygold",21.99,FALSE,"H6-4",NA,NA,"5de281cc625af00010e7ab2d"
"10142",2,0,0,"kahlua",23.99,TRUE,"H7-6",9001,NA,"5de281cc625af00010e7ab2d"
"10143",2,0,1,"saint_brendans",17.99,FALSE,"H7-6",NA,NA,"5de281cc625af00010e7ab2d"
"10144",2,0,2,"bushmills_small",26.99,FALSE,"H7-6",NA,NA,"5de281cc625af00010e7ab2d"
"10145",2,0,3,"five_farms",34.99,FALSE,"H7-6",NA,NA,"5de281cc625af00010e7ab2d"
"10146",2,0,4,"baileys_1750ml_usa",36.99,FALSE,"H7-6",NA,46.99,"5de281cc625af00010e7ab2d"
"10147",2,0,5,"baileys_750ml_usa",27.99,FALSE,"H7-6",NA,NA,"5de281cc625af00010e7ab2d"
"10148",2,0,6,"kerrygold",21.99,FALSE,"H7-6",NA,NA,"5de281cc625af00010e7ab2d"
"10149",2,0,7,"carolans_large",26.99,FALSE,"H7-6",NA,NA,"5de281cc625af00010e7ab2d"
"10150",2,0,8,"grand_marnier",30.99,FALSE,"H7-6",NA,NA,"5de281cc625af00010e7ab2d"
"10151",2,0,9,"carolans_small",17.99,FALSE,"H7-6",NA,NA,"5de281cc625af00010e7ab2d"
"10152",2,0,10,"bushmills_large",42.99,FALSE,"H7-6",NA,NA,"5de281cc625af00010e7ab2d"
"10153",3,0,0,"smirnoff_usa",16.99,FALSE,"H7-fill_1",NA,NA,"5de281cc625af00010e7ab2d"
"10154",3,0,1,"tullamore_dew",30.99,FALSE,"H7-fill_1",NA,NA,"5de281cc625af00010e7ab2d"
"10155",3,0,2,"smirnoff_usa_large",23.99,TRUE,"H7-fill_1",10281,24.99,"5de281cc625af00010e7ab2d"
"10156",3,0,3,"yellow_tail_red",10.99,FALSE,"H7-fill_1",NA,NA,"5de281cc625af00010e7ab2d"
"10157",3,0,4,"yellow_tail_white",10.99,FALSE,"H7-fill_1",NA,NA,"5de281cc625af00010e7ab2d"
"10158",3,0,5,"tanqueray_imported",25.99,FALSE,"H7-fill_1",NA,32.99,"5de281cc625af00010e7ab2d"
"10159",3,0,6,"malibu_imported_large",23.99,FALSE,"H7-fill_1",NA,NA,"5de281cc625af00010e7ab2d"
"10160",3,0,7,"malibu_imported",17.99,FALSE,"H7-fill_1",NA,NA,"5de281cc625af00010e7ab2d"
"10161",3,0,8,"rum_chata_us",24.99,FALSE,"H7-fill_1",NA,30.99,"5de281cc625af00010e7ab2d"
"10162",4,0,0,"tanqueray_imported",25.99,FALSE,"H7-fill_5",NA,NA,"5de281cc625af00010e7ab2d"
"10163",4,0,1,"rum_chata_us",24.99,FALSE,"H7-fill_5",NA,31.99,"5de281cc625af00010e7ab2d"
"10164",4,0,2,"malibu_imported",17.99,FALSE,"H7-fill_5",NA,NA,"5de281cc625af00010e7ab2d"
"10165",4,0,3,"yellow_tail_white",10.99,FALSE,"H7-fill_5",NA,15.99,"5de281cc625af00010e7ab2d"
"10166",4,0,4,"yellow_tail_red",10.99,FALSE,"H7-fill_5",NA,NA,"5de281cc625af00010e7ab2d"
"10167",4,0,5,"smirnoff_usa_large",23.99,FALSE,"H7-fill_5",NA,NA,"5de281cc625af00010e7ab2d"
"10168",4,0,6,"tullamore_dew",30.99,FALSE,"H7-fill_5",NA,NA,"5de281cc625af00010e7ab2d"
"10169",4,0,7,"smirnoff_usa",16.99,TRUE,"H7-fill_5",11357,NA,"5de281cc625af00010e7ab2d"
"10170",4,0,8,"malibu_imported_large",23.99,FALSE,"H7-fill_5",NA,NA,"5de281cc625af00010e7ab2d"
"10171",5,0,0,"smirnoff_usa",16.99,FALSE,"H6-fill_2",NA,NA,"5de281cc625af00010e7ab2d"
"10172",5,0,1,"tanqueray_imported",25.99,FALSE,"H6-fill_2",NA,30.99,"5de281cc625af00010e7ab2d"
"10173",5,0,2,"rum_chata_us",24.99,FALSE,"H6-fill_2",NA,NA,"5de281cc625af00010e7ab2d"
"10174",5,0,3,"yellow_tail_white",10.99,FALSE,"H6-fill_2",NA,15.99,"5de281cc625af00010e7ab2d"
"10175",5,0,4,"yellow_tail_red",10.99,FALSE,"H6-fill_2",NA,NA,"5de281cc625af00010e7ab2d"
"10176",5,0,5,"smirnoff_usa_large",23.99,FALSE,"H6-fill_2",NA,NA,"5de281cc625af00010e7ab2d"
"10177",5,0,6,"malibu_imported",17.99,FALSE,"H6-fill_2",NA,19.99,"5de281cc625af00010e7ab2d"
"10178",5,0,7,"malibu_imported_large",23.99,TRUE,"H6-fill_2",3042,NA,"5de281cc625af00010e7ab2d"
"10179",5,0,8,"tullamore_dew",30.99,FALSE,"H6-fill_2",NA,NA,"5de281cc625af00010e7ab2d"
"10180",6,0,0,"grand_marnier",30.99,FALSE,"H7-5",NA,NA,"5de281cc625af00010e7ab2d"
"10181",6,0,1,"bushmills_small",26.99,FALSE,"H7-5",NA,NA,"5de281cc625af00010e7ab2d"
"10182",6,0,2,"baileys_750ml_usa",27.99,TRUE,"H7-5",15772,NA,"5de281cc625af00010e7ab2d"
"10183",6,0,3,"carolans_small",17.99,FALSE,"H7-5",NA,NA,"5de281cc625af00010e7ab2d"
"10184",6,0,4,"kerrygold",21.99,FALSE,"H7-5",NA,NA,"5de281cc625af00010e7ab2d"
"10185",6,0,5,"bushmills_large",42.99,FALSE,"H7-5",NA,NA,"5de281cc625af00010e7ab2d"
"10186",6,0,6,"baileys_1750ml_usa",39.99,FALSE,"H7-5",NA,46.99,"5de281cc625af00010e7ab2d"
"10187",6,0,7,"carolans_large",26.99,FALSE,"H7-5",NA,NA,"5de281cc625af00010e7ab2d"
"10188",6,0,8,"kahlua",23.99,FALSE,"H7-5",NA,NA,"5de281cc625af00010e7ab2d"
"10189",6,0,9,"saint_brendans",17.99,FALSE,"H7-5",NA,NA,"5de281cc625af00010e7ab2d"
"10190",6,0,10,"five_farms",34.99,FALSE,"H7-5",NA,NA,"5de281cc625af00010e7ab2d"
"10191",7,0,0,"yellow_tail_red",10.99,FALSE,"H6-fill_4",NA,NA,"5de281cc625af00010e7ab2d"
"10192",7,0,1,"yellow_tail_white",10.99,FALSE,"H6-fill_4",NA,NA,"5de281cc625af00010e7ab2d"
"10193",7,0,2,"smirnoff_usa_large",23.99,FALSE,"H6-fill_4",NA,NA,"5de281cc625af00010e7ab2d"
"10194",7,0,3,"smirnoff_usa",16.99,FALSE,"H6-fill_4",NA,NA,"5de281cc625af00010e7ab2d"
"10195",7,0,4,"tullamore_dew",30.99,FALSE,"H6-fill_4",NA,35.99,"5de281cc625af00010e7ab2d"
"10196",7,0,5,"malibu_imported_large",23.99,FALSE,"H6-fill_4",NA,NA,"5de281cc625af00010e7ab2d"
"10197",7,0,6,"tanqueray_imported",25.99,FALSE,"H6-fill_4",NA,NA,"5de281cc625af00010e7ab2d"
"10198",7,0,7,"malibu_imported",17.99,FALSE,"H6-fill_4",NA,NA,"5de281cc625af00010e7ab2d"
"10199",7,0,8,"rum_chata_us",24.99,TRUE,"H6-fill_4",10016,27.99,"5de281cc625af00010e7ab2d"
"10200",8,0,0,"rum_chata_us",24.99,FALSE,"H7-fill_6",NA,NA,"5de281cc625af00010e7ab2d"
"10201",8,0,1,"malibu_imported",17.99,FALSE,"H7-fill_6",NA,NA,"5de281cc625af00010e7ab2d"
"10202",8,0,2,"smirnoff_usa_large",23.99,FALSE,"H7-fill_6",NA,30.99,"5de281cc625af00010e7ab2d"
"10203",8,0,3,"yellow_tail_red",10.99,FALSE,"H7-fill_6",NA,NA,"5de281cc625af00010e7ab2d"
"10204",8,0,4,"malibu_imported_large",23.99,FALSE,"H7-fill_6",NA,NA,"5de281cc625af00010e7ab2d"
"10205",8,0,5,"smirnoff_usa",16.99,TRUE,"H7-fill_6",4742,NA,"5de281cc625af00010e7ab2d"
"10206",8,0,6,"tanqueray_imported",25.99,FALSE,"H7-fill_6",NA,NA,"5de281cc625af00010e7ab2d"
"10207",8,0,7,"yellow_tail_white",10.99,FALSE,"H7-fill_6",NA,NA,"5de281cc625af00010e7ab2d"
"10208",8,0,8,"tullamore_dew",30.99,FALSE,"H7-fill_6",NA,NA,"5de281cc625af00010e7ab2d"
"10209",9,0,0,"bushmills_large",42.99,TRUE,"H6-2",2605,NA,"5de281cc625af00010e7ab2d"
"10210",9,0,1,"bushmills_small",26.99,FALSE,"H6-2",NA,NA,"5de281cc625af00010e7ab2d"
"10211",9,0,2,"five_farms",34.99,FALSE,"H6-2",NA,NA,"5de281cc625af00010e7ab2d"
"10212",9,0,3,"kahlua",23.99,FALSE,"H6-2",NA,NA,"5de281cc625af00010e7ab2d"
"10213",9,0,4,"kerrygold",21.99,FALSE,"H6-2",NA,NA,"5de281cc625af00010e7ab2d"
"10214",9,0,5,"grand_marnier",30.99,FALSE,"H6-2",NA,NA,"5de281cc625af00010e7ab2d"
"10215",9,0,6,"carolans_large",26.99,FALSE,"H6-2",NA,NA,"5de281cc625af00010e7ab2d"
"10216",9,0,7,"baileys_750ml_usa",24.99,FALSE,"H6-2",NA,29.99,"5de281cc625af00010e7ab2d"
"10217",9,0,8,"carolans_small",17.99,FALSE,"H6-2",NA,NA,"5de281cc625af00010e7ab2d"
"10218",9,0,9,"saint_brendans",17.99,FALSE,"H6-2",NA,NA,"5de281cc625af00010e7ab2d"
"10477",0,0,0,"tanqueray_imported",25.99,FALSE,"H7-fill_3",NA,NA,"5de28218625af00010e7adac"
"10478",0,0,1,"tullamore_dew",30.99,FALSE,"H7-fill_3",NA,NA,"5de28218625af00010e7adac"
"10479",0,0,2,"yellow_tail_red",10.99,FALSE,"H7-fill_3",NA,NA,"5de28218625af00010e7adac"
"10480",0,0,3,"rum_chata_us",24.99,FALSE,"H7-fill_3",NA,30.99,"5de28218625af00010e7adac"
"10481",0,0,4,"smirnoff_usa",16.99,TRUE,"H7-fill_3",5195,NA,"5de28218625af00010e7adac"
"10482",0,0,5,"malibu_imported",17.99,FALSE,"H7-fill_3",NA,23.99,"5de28218625af00010e7adac"
"10483",0,0,6,"smirnoff_usa_large",23.99,FALSE,"H7-fill_3",NA,NA,"5de28218625af00010e7adac"
"10484",0,0,7,"yellow_tail_white",10.99,FALSE,"H7-fill_3",NA,NA,"5de28218625af00010e7adac"
"10485",0,0,8,"malibu_imported_large",23.99,FALSE,"H7-fill_3",NA,NA,"5de28218625af00010e7adac"
"10486",1,0,0,"five_farms",34.99,FALSE,"H5-1",NA,NA,"5de28218625af00010e7adac"
"10487",1,0,1,"carolans_small",17.99,FALSE,"H5-1",NA,NA,"5de28218625af00010e7adac"
"10488",1,0,2,"carolans_large",26.99,FALSE,"H5-1",NA,NA,"5de28218625af00010e7adac"
"10489",1,0,3,"baileys_750ml_usa",30.99,TRUE,"H5-1",6230,NA,"5de28218625af00010e7adac"
"10490",1,0,4,"grand_marnier",30.99,FALSE,"H5-1",NA,NA,"5de28218625af00010e7adac"
"10491",1,0,5,"saint_brendans",17.99,FALSE,"H5-1",NA,NA,"5de28218625af00010e7adac"
"10492",1,0,6,"kahlua",23.99,FALSE,"H5-1",NA,NA,"5de28218625af00010e7adac"
"10493",1,0,7,"bushmills_small",26.99,FALSE,"H5-1",NA,NA,"5de28218625af00010e7adac"
"10494",1,0,8,"bushmills_large",42.99,FALSE,"H5-1",NA,NA,"5de28218625af00010e7adac"
"10495",1,0,9,"kerrygold",21.99,FALSE,"H5-1",NA,NA,"5de28218625af00010e7adac"
"10496",2,0,0,"malibu_imported_large",23.99,FALSE,"H7-fill_2",NA,NA,"5de28218625af00010e7adac"
"10497",2,0,1,"yellow_tail_red",10.99,FALSE,"H7-fill_2",NA,NA,"5de28218625af00010e7adac"
"10498",2,0,2,"tullamore_dew",30.99,FALSE,"H7-fill_2",NA,NA,"5de28218625af00010e7adac"
"10499",2,0,3,"smirnoff_usa",16.99,FALSE,"H7-fill_2",NA,NA,"5de28218625af00010e7adac"
"10500",2,0,4,"yellow_tail_white",10.99,FALSE,"H7-fill_2",NA,NA,"5de28218625af00010e7adac"
"10501",2,0,5,"rum_chata_us",24.99,FALSE,"H7-fill_2",NA,30.99,"5de28218625af00010e7adac"
"10502",2,0,6,"smirnoff_usa_large",23.99,TRUE,"H7-fill_2",2436,NA,"5de28218625af00010e7adac"
"10503",2,0,7,"tanqueray_imported",25.99,FALSE,"H7-fill_2",NA,NA,"5de28218625af00010e7adac"
"10504",2,0,8,"malibu_imported",17.99,FALSE,"H7-fill_2",NA,NA,"5de28218625af00010e7adac"
"10505",3,0,0,"baileys_1750ml_usa",39.99,TRUE,"H7-5",2056,46.99,"5de28218625af00010e7adac"
"10506",3,0,1,"baileys_750ml_usa",27.99,FALSE,"H7-5",NA,NA,"5de28218625af00010e7adac"
"10507",3,0,2,"carolans_small",17.99,FALSE,"H7-5",NA,NA,"5de28218625af00010e7adac"
"10508",3,0,3,"saint_brendans",17.99,FALSE,"H7-5",NA,NA,"5de28218625af00010e7adac"
"10509",3,0,4,"grand_marnier",30.99,FALSE,"H7-5",NA,NA,"5de28218625af00010e7adac"
"10510",3,0,5,"kahlua",23.99,FALSE,"H7-5",NA,NA,"5de28218625af00010e7adac"
"10511",3,0,6,"five_farms",34.99,FALSE,"H7-5",NA,NA,"5de28218625af00010e7adac"
"10512",3,0,7,"bushmills_large",42.99,FALSE,"H7-5",NA,NA,"5de28218625af00010e7adac"
"10513",3,0,8,"bushmills_small",26.99,FALSE,"H7-5",NA,NA,"5de28218625af00010e7adac"
"10514",3,0,9,"kerrygold",21.99,FALSE,"H7-5",NA,NA,"5de28218625af00010e7adac"
"10515",3,0,10,"carolans_large",26.99,FALSE,"H7-5",NA,NA,"5de28218625af00010e7adac"
"10516",4,0,0,"malibu_imported",17.99,FALSE,"H7-fill_6",NA,NA,"5de28218625af00010e7adac"
"10517",4,0,1,"tanqueray_imported",25.99,FALSE,"H7-fill_6",NA,NA,"5de28218625af00010e7adac"
"10518",4,0,2,"rum_chata_us",24.99,FALSE,"H7-fill_6",NA,NA,"5de28218625af00010e7adac"
"10519",4,0,3,"yellow_tail_white",10.99,FALSE,"H7-fill_6",NA,NA,"5de28218625af00010e7adac"
"10520",4,0,4,"smirnoff_usa_large",23.99,TRUE,"H7-fill_6",8529,30.99,"5de28218625af00010e7adac"
"10521",4,0,5,"malibu_imported_large",23.99,FALSE,"H7-fill_6",NA,NA,"5de28218625af00010e7adac"
"10522",4,0,6,"smirnoff_usa",16.99,FALSE,"H7-fill_6",NA,NA,"5de28218625af00010e7adac"
"10523",4,0,7,"tullamore_dew",30.99,FALSE,"H7-fill_6",NA,NA,"5de28218625af00010e7adac"
"10524",4,0,8,"yellow_tail_red",10.99,FALSE,"H7-fill_6",NA,NA,"5de28218625af00010e7adac"
"10525",5,0,0,"grand_marnier",30.99,FALSE,"H7-6",NA,NA,"5de28218625af00010e7adac"
"10526",5,0,1,"kahlua",23.99,FALSE,"H7-6",NA,NA,"5de28218625af00010e7adac"
"10527",5,0,2,"baileys_750ml_usa",27.99,FALSE,"H7-6",NA,NA,"5de28218625af00010e7adac"
"10528",5,0,3,"bushmills_large",42.99,FALSE,"H7-6",NA,NA,"5de28218625af00010e7adac"
"10529",5,0,4,"carolans_small",17.99,FALSE,"H7-6",NA,NA,"5de28218625af00010e7adac"
"10530",5,0,5,"kerrygold",21.99,FALSE,"H7-6",NA,NA,"5de28218625af00010e7adac"
"10531",5,0,6,"carolans_large",26.99,FALSE,"H7-6",NA,NA,"5de28218625af00010e7adac"
"10532",5,0,7,"saint_brendans",17.99,FALSE,"H7-6",NA,NA,"5de28218625af00010e7adac"
"10533",5,0,8,"five_farms",34.99,FALSE,"H7-6",NA,NA,"5de28218625af00010e7adac"
"10534",5,0,9,"baileys_1750ml_usa",36.99,TRUE,"H7-6",3411,46.99,"5de28218625af00010e7adac"
"10535",5,0,10,"bushmills_small",26.99,FALSE,"H7-6",NA,NA,"5de28218625af00010e7adac"
"10536",6,0,0,"smirnoff_usa_large",23.99,TRUE,"H5-fill_5",3364,NA,"5de28218625af00010e7adac"
"10537",6,0,1,"yellow_tail_red",10.99,FALSE,"H5-fill_5",NA,17.99,"5de28218625af00010e7adac"
"10538",6,0,2,"malibu_imported_large",23.99,FALSE,"H5-fill_5",NA,NA,"5de28218625af00010e7adac"
"10539",6,0,3,"rum_chata_us",24.99,FALSE,"H5-fill_5",NA,26.99,"5de28218625af00010e7adac"
"10540",6,0,4,"tullamore_dew",30.99,FALSE,"H5-fill_5",NA,36.99,"5de28218625af00010e7adac"
"10541",6,0,5,"malibu_imported",17.99,FALSE,"H5-fill_5",NA,NA,"5de28218625af00010e7adac"
"10542",6,0,6,"smirnoff_usa",16.99,FALSE,"H5-fill_5",NA,17.99,"5de28218625af00010e7adac"
"10543",6,0,7,"tanqueray_imported",25.99,FALSE,"H5-fill_5",NA,NA,"5de28218625af00010e7adac"
"10544",6,0,8,"yellow_tail_white",10.99,FALSE,"H5-fill_5",NA,NA,"5de28218625af00010e7adac"
"10545",7,0,0,"tanqueray_imported",25.99,FALSE,"H5-fill_2",NA,33.99,"5de28218625af00010e7adac"
"10546",7,0,1,"malibu_imported",17.99,FALSE,"H5-fill_2",NA,NA,"5de28218625af00010e7adac"
"10547",7,0,2,"yellow_tail_red",10.99,FALSE,"H5-fill_2",NA,NA,"5de28218625af00010e7adac"
"10548",7,0,3,"malibu_imported_large",23.99,FALSE,"H5-fill_2",NA,NA,"5de28218625af00010e7adac"
"10549",7,0,4,"rum_chata_us",24.99,FALSE,"H5-fill_2",NA,NA,"5de28218625af00010e7adac"
"10550",7,0,5,"smirnoff_usa",16.99,FALSE,"H5-fill_2",NA,19.99,"5de28218625af00010e7adac"
"10551",7,0,6,"tullamore_dew",30.99,FALSE,"H5-fill_2",NA,NA,"5de28218625af00010e7adac"
"10552",7,0,7,"smirnoff_usa_large",23.99,TRUE,"H5-fill_2",2173,NA,"5de28218625af00010e7adac"
"10553",7,0,8,"yellow_tail_white",10.99,FALSE,"H5-fill_2",NA,14.99,"5de28218625af00010e7adac"
"10554",8,0,0,"kahlua",23.99,FALSE,"H6-2",NA,NA,"5de28218625af00010e7adac"
"10555",8,0,1,"baileys_750ml_usa",24.99,TRUE,"H6-2",2845,29.99,"5de28218625af00010e7adac"
"10556",8,0,2,"five_farms",34.99,FALSE,"H6-2",NA,NA,"5de28218625af00010e7adac"
"10557",8,0,3,"bushmills_small",26.99,FALSE,"H6-2",NA,NA,"5de28218625af00010e7adac"
"10558",8,0,4,"carolans_large",26.99,FALSE,"H6-2",NA,NA,"5de28218625af00010e7adac"
"10559",8,0,5,"bushmills_large",42.99,FALSE,"H6-2",NA,NA,"5de28218625af00010e7adac"
"10560",8,0,6,"kerrygold",21.99,FALSE,"H6-2",NA,NA,"5de28218625af00010e7adac"
"10561",8,0,7,"carolans_small",17.99,FALSE,"H6-2",NA,NA,"5de28218625af00010e7adac"
"10562",8,0,8,"grand_marnier",30.99,FALSE,"H6-2",NA,NA,"5de28218625af00010e7adac"
"10563",8,0,9,"saint_brendans",17.99,FALSE,"H6-2",NA,NA,"5de28218625af00010e7adac"
"10564",9,0,0,"yellow_tail_white",10.99,FALSE,"H6-fill_3",NA,NA,"5de28218625af00010e7adac"
"10565",9,0,1,"smirnoff_usa",16.99,FALSE,"H6-fill_3",NA,21.99,"5de28218625af00010e7adac"
"10566",9,0,2,"smirnoff_usa_large",23.99,TRUE,"H6-fill_3",1734,NA,"5de28218625af00010e7adac"
"10567",9,0,3,"malibu_imported",17.99,FALSE,"H6-fill_3",NA,18.99,"5de28218625af00010e7adac"
"10568",9,0,4,"yellow_tail_red",10.99,FALSE,"H6-fill_3",NA,NA,"5de28218625af00010e7adac"
"10569",9,0,5,"malibu_imported_large",23.99,FALSE,"H6-fill_3",NA,24.99,"5de28218625af00010e7adac"
"10570",9,0,6,"rum_chata_us",24.99,FALSE,"H6-fill_3",NA,NA,"5de28218625af00010e7adac"
"10571",9,0,7,"tullamore_dew",30.99,FALSE,"H6-fill_3",NA,NA,"5de28218625af00010e7adac"
"10572",9,0,8,"tanqueray_imported",25.99,FALSE,"H6-fill_3",NA,29.99,"5de28218625af00010e7adac"
"11097",0,0,0,"grand_marnier",30.99,FALSE,"H6-5",NA,NA,"5de2823ed521a00010b4a60f"
"11098",0,0,1,"kahlua",23.99,FALSE,"H6-5",NA,NA,"5de2823ed521a00010b4a60f"
"11099",0,0,2,"five_farms",34.99,FALSE,"H6-5",NA,NA,"5de2823ed521a00010b4a60f"
"11100",0,0,3,"bushmills_large",42.99,FALSE,"H6-5",NA,NA,"5de2823ed521a00010b4a60f"
"11101",0,0,4,"bushmills_small",26.99,FALSE,"H6-5",NA,NA,"5de2823ed521a00010b4a60f"
"11102",0,0,5,"carolans_small",17.99,FALSE,"H6-5",NA,NA,"5de2823ed521a00010b4a60f"
"11103",0,0,6,"kerrygold",21.99,FALSE,"H6-5",NA,NA,"5de2823ed521a00010b4a60f"
"11104",0,0,7,"carolans_large",26.99,TRUE,"H6-5",6008,NA,"5de2823ed521a00010b4a60f"
"11105",0,0,8,"saint_brendans",17.99,FALSE,"H6-5",NA,NA,"5de2823ed521a00010b4a60f"
"11106",0,0,9,"baileys_750ml_usa",21.99,FALSE,"H6-5",NA,29.99,"5de2823ed521a00010b4a60f"
"11107",1,0,0,"carolans_small",17.99,TRUE,"H7-6",7438,NA,"5de2823ed521a00010b4a60f"
"11108",1,0,1,"baileys_750ml_usa",27.99,FALSE,"H7-6",NA,NA,"5de2823ed521a00010b4a60f"
"11109",1,0,2,"kahlua",23.99,FALSE,"H7-6",NA,NA,"5de2823ed521a00010b4a60f"
"11110",1,0,3,"bushmills_large",42.99,FALSE,"H7-6",NA,NA,"5de2823ed521a00010b4a60f"
"11111",1,0,4,"kerrygold",21.99,FALSE,"H7-6",NA,NA,"5de2823ed521a00010b4a60f"
"11112",1,0,5,"saint_brendans",17.99,FALSE,"H7-6",NA,NA,"5de2823ed521a00010b4a60f"
"11113",1,0,6,"five_farms",34.99,FALSE,"H7-6",NA,NA,"5de2823ed521a00010b4a60f"
"11114",1,0,7,"carolans_large",26.99,FALSE,"H7-6",NA,NA,"5de2823ed521a00010b4a60f"
"11115",1,0,8,"baileys_1750ml_usa",36.99,FALSE,"H7-6",NA,46.99,"5de2823ed521a00010b4a60f"
"11116",1,0,9,"bushmills_small",26.99,FALSE,"H7-6",NA,NA,"5de2823ed521a00010b4a60f"
"11117",1,0,10,"grand_marnier",30.99,FALSE,"H7-6",NA,NA,"5de2823ed521a00010b4a60f"
"11118",2,0,0,"smirnoff_usa",16.99,FALSE,"H7-fill_5",NA,NA,"5de2823ed521a00010b4a60f"
"11119",2,0,1,"malibu_imported",17.99,FALSE,"H7-fill_5",NA,NA,"5de2823ed521a00010b4a60f"
"11120",2,0,2,"yellow_tail_red",10.99,FALSE,"H7-fill_5",NA,NA,"5de2823ed521a00010b4a60f"
"11121",2,0,3,"smirnoff_usa_large",23.99,FALSE,"H7-fill_5",NA,NA,"5de2823ed521a00010b4a60f"
"11122",2,0,4,"tanqueray_imported",25.99,FALSE,"H7-fill_5",NA,NA,"5de2823ed521a00010b4a60f"
"11123",2,0,5,"tullamore_dew",30.99,FALSE,"H7-fill_5",NA,NA,"5de2823ed521a00010b4a60f"
"11124",2,0,6,"rum_chata_us",24.99,TRUE,"H7-fill_5",5924,31.99,"5de2823ed521a00010b4a60f"
"11125",2,0,7,"malibu_imported_large",23.99,FALSE,"H7-fill_5",NA,NA,"5de2823ed521a00010b4a60f"
"11126",2,0,8,"yellow_tail_white",10.99,FALSE,"H7-fill_5",NA,15.99,"5de2823ed521a00010b4a60f"
"11127",3,0,0,"bushmills_small",26.99,FALSE,"H5-1",NA,NA,"5de2823ed521a00010b4a60f"
"11128",3,0,1,"kahlua",23.99,TRUE,"H5-1",3416,NA,"5de2823ed521a00010b4a60f"
"11129",3,0,2,"carolans_large",26.99,FALSE,"H5-1",NA,NA,"5de2823ed521a00010b4a60f"
"11130",3,0,3,"saint_brendans",17.99,FALSE,"H5-1",NA,NA,"5de2823ed521a00010b4a60f"
"11131",3,0,4,"baileys_750ml_usa",30.99,FALSE,"H5-1",NA,NA,"5de2823ed521a00010b4a60f"
"11132",3,0,5,"grand_marnier",30.99,FALSE,"H5-1",NA,NA,"5de2823ed521a00010b4a60f"
"11133",3,0,6,"five_farms",34.99,FALSE,"H5-1",NA,NA,"5de2823ed521a00010b4a60f"
"11134",3,0,7,"carolans_small",17.99,FALSE,"H5-1",NA,NA,"5de2823ed521a00010b4a60f"
"11135",3,0,8,"kerrygold",21.99,FALSE,"H5-1",NA,NA,"5de2823ed521a00010b4a60f"
"11136",3,0,9,"bushmills_large",42.99,FALSE,"H5-1",NA,NA,"5de2823ed521a00010b4a60f"
"11137",4,0,0,"bushmills_small",26.99,FALSE,"H6-6",NA,NA,"5de2823ed521a00010b4a60f"
"11138",4,0,1,"kahlua",23.99,FALSE,"H6-6",NA,NA,"5de2823ed521a00010b4a60f"
"11139",4,0,2,"saint_brendans",17.99,FALSE,"H6-6",NA,NA,"5de2823ed521a00010b4a60f"
"11140",4,0,3,"five_farms",34.99,FALSE,"H6-6",NA,NA,"5de2823ed521a00010b4a60f"
"11141",4,0,4,"bushmills_large",42.99,FALSE,"H6-6",NA,NA,"5de2823ed521a00010b4a60f"
"11142",4,0,5,"carolans_large",26.99,FALSE,"H6-6",NA,NA,"5de2823ed521a00010b4a60f"
"11143",4,0,6,"baileys_750ml_usa",20.99,FALSE,"H6-6",NA,29.99,"5de2823ed521a00010b4a60f"
"11144",4,0,7,"carolans_small",17.99,FALSE,"H6-6",NA,NA,"5de2823ed521a00010b4a60f"
"11145",4,0,8,"grand_marnier",30.99,FALSE,"H6-6",NA,NA,"5de2823ed521a00010b4a60f"
"11146",4,0,9,"kerrygold",21.99,TRUE,"H6-6",4359,NA,"5de2823ed521a00010b4a60f"
"11147",5,0,0,"bushmills_large",42.99,FALSE,"H7-3",NA,NA,"5de2823ed521a00010b4a60f"
"11148",5,0,1,"saint_brendans",17.99,FALSE,"H7-3",NA,NA,"5de2823ed521a00010b4a60f"
"11149",5,0,2,"baileys_1750ml_usa",45.99,FALSE,"H7-3",NA,56.99,"5de2823ed521a00010b4a60f"
"11150",5,0,3,"grand_marnier",30.99,TRUE,"H7-3",4209,NA,"5de2823ed521a00010b4a60f"
"11151",5,0,4,"five_farms",34.99,FALSE,"H7-3",NA,NA,"5de2823ed521a00010b4a60f"
"11152",5,0,5,"carolans_large",26.99,FALSE,"H7-3",NA,NA,"5de2823ed521a00010b4a60f"
"11153",5,0,6,"carolans_small",17.99,FALSE,"H7-3",NA,NA,"5de2823ed521a00010b4a60f"
"11154",5,0,7,"kerrygold",21.99,FALSE,"H7-3",NA,NA,"5de2823ed521a00010b4a60f"
"11155",5,0,8,"baileys_750ml_usa",27.99,FALSE,"H7-3",NA,NA,"5de2823ed521a00010b4a60f"
"11156",5,0,9,"bushmills_small",26.99,FALSE,"H7-3",NA,NA,"5de2823ed521a00010b4a60f"
"11157",5,0,10,"kahlua",23.99,FALSE,"H7-3",NA,NA,"5de2823ed521a00010b4a60f"
"11158",6,0,0,"carolans_small",17.99,FALSE,"H7-4",NA,NA,"5de2823ed521a00010b4a60f"
"11159",6,0,1,"kahlua",23.99,FALSE,"H7-4",NA,NA,"5de2823ed521a00010b4a60f"
"11160",6,0,2,"carolans_large",26.99,FALSE,"H7-4",NA,NA,"5de2823ed521a00010b4a60f"
"11161",6,0,3,"baileys_1750ml_usa",42.99,FALSE,"H7-4",NA,46.99,"5de2823ed521a00010b4a60f"
"11162",6,0,4,"baileys_750ml_usa",27.99,TRUE,"H7-4",6048,NA,"5de2823ed521a00010b4a60f"
"11163",6,0,5,"five_farms",34.99,FALSE,"H7-4",NA,NA,"5de2823ed521a00010b4a60f"
"11164",6,0,6,"bushmills_small",26.99,FALSE,"H7-4",NA,NA,"5de2823ed521a00010b4a60f"
"11165",6,0,7,"saint_brendans",17.99,FALSE,"H7-4",NA,NA,"5de2823ed521a00010b4a60f"
"11166",6,0,8,"kerrygold",21.99,FALSE,"H7-4",NA,NA,"5de2823ed521a00010b4a60f"
"11167",6,0,9,"grand_marnier",30.99,FALSE,"H7-4",NA,NA,"5de2823ed521a00010b4a60f"
"11168",6,0,10,"bushmills_large",42.99,FALSE,"H7-4",NA,NA,"5de2823ed521a00010b4a60f"
"11169",7,0,0,"carolans_large",26.99,FALSE,"H5-2",NA,NA,"5de2823ed521a00010b4a60f"
"11170",7,0,1,"grand_marnier",30.99,FALSE,"H5-2",NA,NA,"5de2823ed521a00010b4a60f"
"11171",7,0,2,"bushmills_large",42.99,FALSE,"H5-2",NA,NA,"5de2823ed521a00010b4a60f"
"11172",7,0,3,"kerrygold",21.99,FALSE,"H5-2",NA,NA,"5de2823ed521a00010b4a60f"
"11173",7,0,4,"carolans_small",17.99,FALSE,"H5-2",NA,NA,"5de2823ed521a00010b4a60f"
"11174",7,0,5,"five_farms",34.99,FALSE,"H5-2",NA,NA,"5de2823ed521a00010b4a60f"
"11175",7,0,6,"kahlua",23.99,TRUE,"H5-2",2957,NA,"5de2823ed521a00010b4a60f"
"11176",7,0,7,"saint_brendans",17.99,FALSE,"H5-2",NA,NA,"5de2823ed521a00010b4a60f"
"11177",7,0,8,"baileys_750ml_usa",28.99,FALSE,"H5-2",NA,NA,"5de2823ed521a00010b4a60f"
"11178",7,0,9,"bushmills_small",26.99,FALSE,"H5-2",NA,NA,"5de2823ed521a00010b4a60f"
"11179",8,0,0,"malibu_imported",17.99,FALSE,"H7-fill_1",NA,NA,"5de2823ed521a00010b4a60f"
"11180",8,0,1,"tanqueray_imported",25.99,FALSE,"H7-fill_1",NA,32.99,"5de2823ed521a00010b4a60f"
"11181",8,0,2,"malibu_imported_large",23.99,FALSE,"H7-fill_1",NA,NA,"5de2823ed521a00010b4a60f"
"11182",8,0,3,"tullamore_dew",30.99,FALSE,"H7-fill_1",NA,NA,"5de2823ed521a00010b4a60f"
"11183",8,0,4,"rum_chata_us",24.99,FALSE,"H7-fill_1",NA,30.99,"5de2823ed521a00010b4a60f"
"11184",8,0,5,"yellow_tail_white",10.99,TRUE,"H7-fill_1",3240,NA,"5de2823ed521a00010b4a60f"
"11185",8,0,6,"yellow_tail_red",10.99,FALSE,"H7-fill_1",NA,NA,"5de2823ed521a00010b4a60f"
"11186",8,0,7,"smirnoff_usa",16.99,FALSE,"H7-fill_1",NA,NA,"5de2823ed521a00010b4a60f"
"11187",8,0,8,"smirnoff_usa_large",23.99,FALSE,"H7-fill_1",NA,24.99,"5de2823ed521a00010b4a60f"
"11188",9,0,0,"kahlua",23.99,FALSE,"H5-4",NA,NA,"5de2823ed521a00010b4a60f"
"11189",9,0,1,"five_farms",34.99,FALSE,"H5-4",NA,NA,"5de2823ed521a00010b4a60f"
"11190",9,0,2,"carolans_large",26.99,FALSE,"H5-4",NA,NA,"5de2823ed521a00010b4a60f"
"11191",9,0,3,"grand_marnier",30.99,FALSE,"H5-4",NA,NA,"5de2823ed521a00010b4a60f"
"11192",9,0,4,"bushmills_large",42.99,FALSE,"H5-4",NA,NA,"5de2823ed521a00010b4a60f"
"11193",9,0,5,"baileys_750ml_usa",24.99,FALSE,"H5-4",NA,NA,"5de2823ed521a00010b4a60f"
"11194",9,0,6,"saint_brendans",17.99,FALSE,"H5-4",NA,NA,"5de2823ed521a00010b4a60f"
"11195",9,0,7,"kerrygold",21.99,TRUE,"H5-4",3097,NA,"5de2823ed521a00010b4a60f"
"11196",9,0,8,"carolans_small",17.99,FALSE,"H5-4",NA,NA,"5de2823ed521a00010b4a60f"
"11197",9,0,9,"bushmills_small",26.99,FALSE,"H5-4",NA,NA,"5de2823ed521a00010b4a60f"
"11869",0,0,0,"carolans_large",26.99,FALSE,"H5-1",NA,NA,"5de28253d521a00010b4a6c6"
"11870",0,0,1,"grand_marnier",30.99,FALSE,"H5-1",NA,NA,"5de28253d521a00010b4a6c6"
"11871",0,0,2,"baileys_750ml_usa",30.99,FALSE,"H5-1",NA,NA,"5de28253d521a00010b4a6c6"
"11872",0,0,3,"five_farms",34.99,FALSE,"H5-1",NA,NA,"5de28253d521a00010b4a6c6"
"11873",0,0,4,"kerrygold",21.99,FALSE,"H5-1",NA,NA,"5de28253d521a00010b4a6c6"
"11874",0,0,5,"bushmills_small",26.99,FALSE,"H5-1",NA,NA,"5de28253d521a00010b4a6c6"
"11875",0,0,6,"bushmills_large",42.99,FALSE,"H5-1",NA,NA,"5de28253d521a00010b4a6c6"
"11876",0,0,7,"kahlua",23.99,TRUE,"H5-1",6768,NA,"5de28253d521a00010b4a6c6"
"11877",0,0,8,"carolans_small",17.99,FALSE,"H5-1",NA,NA,"5de28253d521a00010b4a6c6"
"11878",0,0,9,"saint_brendans",17.99,FALSE,"H5-1",NA,NA,"5de28253d521a00010b4a6c6"
"11879",1,0,0,"malibu_imported_large",23.99,FALSE,"H5-fill_1",NA,30.99,"5de28253d521a00010b4a6c6"
"11880",1,0,1,"yellow_tail_red",10.99,FALSE,"H5-fill_1",NA,NA,"5de28253d521a00010b4a6c6"
"11881",1,0,2,"rum_chata_us",24.99,FALSE,"H5-fill_1",NA,NA,"5de28253d521a00010b4a6c6"
"11882",1,0,3,"malibu_imported",17.99,TRUE,"H5-fill_1",5998,NA,"5de28253d521a00010b4a6c6"
"11883",1,0,4,"yellow_tail_white",10.99,FALSE,"H5-fill_1",NA,17.99,"5de28253d521a00010b4a6c6"
"11884",1,0,5,"smirnoff_usa_large",23.99,FALSE,"H5-fill_1",NA,NA,"5de28253d521a00010b4a6c6"
"11885",1,0,6,"tullamore_dew",30.99,FALSE,"H5-fill_1",NA,NA,"5de28253d521a00010b4a6c6"
"11886",1,0,7,"tanqueray_imported",25.99,FALSE,"H5-fill_1",NA,NA,"5de28253d521a00010b4a6c6"
"11887",1,0,8,"smirnoff_usa",16.99,FALSE,"H5-fill_1",NA,23.99,"5de28253d521a00010b4a6c6"
"11888",2,0,0,"bushmills_small",26.99,FALSE,"H5-5",NA,NA,"5de28253d521a00010b4a6c6"
"11889",2,0,1,"kerrygold",21.99,FALSE,"H5-5",NA,NA,"5de28253d521a00010b4a6c6"
"11890",2,0,2,"five_farms",34.99,FALSE,"H5-5",NA,NA,"5de28253d521a00010b4a6c6"
"11891",2,0,3,"carolans_large",26.99,FALSE,"H5-5",NA,NA,"5de28253d521a00010b4a6c6"
"11892",2,0,4,"saint_brendans",17.99,FALSE,"H5-5",NA,NA,"5de28253d521a00010b4a6c6"
"11893",2,0,5,"carolans_small",17.99,FALSE,"H5-5",NA,NA,"5de28253d521a00010b4a6c6"
"11894",2,0,6,"bushmills_large",42.99,FALSE,"H5-5",NA,NA,"5de28253d521a00010b4a6c6"
"11895",2,0,7,"baileys_750ml_usa",22.99,TRUE,"H5-5",4443,NA,"5de28253d521a00010b4a6c6"
"11896",2,0,8,"kahlua",23.99,FALSE,"H5-5",NA,NA,"5de28253d521a00010b4a6c6"
"11897",2,0,9,"grand_marnier",30.99,FALSE,"H5-5",NA,NA,"5de28253d521a00010b4a6c6"
"11898",3,0,0,"malibu_imported",17.99,FALSE,"H7-fill_4",NA,NA,"5de28253d521a00010b4a6c6"
"11899",3,0,1,"tanqueray_imported",25.99,FALSE,"H7-fill_4",NA,NA,"5de28253d521a00010b4a6c6"
"11900",3,0,2,"yellow_tail_white",10.99,FALSE,"H7-fill_4",NA,NA,"5de28253d521a00010b4a6c6"
"11901",3,0,3,"tullamore_dew",30.99,FALSE,"H7-fill_4",NA,32.99,"5de28253d521a00010b4a6c6"
"11902",3,0,4,"smirnoff_usa",16.99,FALSE,"H7-fill_4",NA,NA,"5de28253d521a00010b4a6c6"
"11903",3,0,5,"yellow_tail_red",10.99,FALSE,"H7-fill_4",NA,12.99,"5de28253d521a00010b4a6c6"
"11904",3,0,6,"smirnoff_usa_large",23.99,FALSE,"H7-fill_4",NA,28.99,"5de28253d521a00010b4a6c6"
"11905",3,0,7,"malibu_imported_large",23.99,TRUE,"H7-fill_4",4394,NA,"5de28253d521a00010b4a6c6"
"11906",3,0,8,"rum_chata_us",24.99,FALSE,"H7-fill_4",NA,NA,"5de28253d521a00010b4a6c6"
"11907",4,0,0,"tanqueray_imported",25.99,FALSE,"H7-fill_2",NA,NA,"5de28253d521a00010b4a6c6"
"11908",4,0,1,"yellow_tail_white",10.99,FALSE,"H7-fill_2",NA,NA,"5de28253d521a00010b4a6c6"
"11909",4,0,2,"tullamore_dew",30.99,FALSE,"H7-fill_2",NA,NA,"5de28253d521a00010b4a6c6"
"11910",4,0,3,"smirnoff_usa_large",23.99,FALSE,"H7-fill_2",NA,NA,"5de28253d521a00010b4a6c6"
"11911",4,0,4,"malibu_imported_large",23.99,FALSE,"H7-fill_2",NA,NA,"5de28253d521a00010b4a6c6"
"11912",4,0,5,"rum_chata_us",24.99,FALSE,"H7-fill_2",NA,30.99,"5de28253d521a00010b4a6c6"
"11913",4,0,6,"yellow_tail_red",10.99,FALSE,"H7-fill_2",NA,NA,"5de28253d521a00010b4a6c6"
"11914",4,0,7,"smirnoff_usa",16.99,FALSE,"H7-fill_2",NA,NA,"5de28253d521a00010b4a6c6"
"11915",4,0,8,"malibu_imported",17.99,TRUE,"H7-fill_2",3049,NA,"5de28253d521a00010b4a6c6"
"11916",5,0,0,"yellow_tail_red",10.99,FALSE,"H6-fill_1",NA,16.99,"5de28253d521a00010b4a6c6"
"11917",5,0,1,"malibu_imported",17.99,TRUE,"H6-fill_1",1833,NA,"5de28253d521a00010b4a6c6"
"11918",5,0,2,"smirnoff_usa",16.99,FALSE,"H6-fill_1",NA,NA,"5de28253d521a00010b4a6c6"
"11919",5,0,3,"tanqueray_imported",25.99,FALSE,"H6-fill_1",NA,26.99,"5de28253d521a00010b4a6c6"
"11920",5,0,4,"yellow_tail_white",10.99,FALSE,"H6-fill_1",NA,18.99,"5de28253d521a00010b4a6c6"
"11921",5,0,5,"malibu_imported_large",23.99,FALSE,"H6-fill_1",NA,31.99,"5de28253d521a00010b4a6c6"
"11922",5,0,6,"smirnoff_usa_large",23.99,FALSE,"H6-fill_1",NA,NA,"5de28253d521a00010b4a6c6"
"11923",5,0,7,"rum_chata_us",24.99,FALSE,"H6-fill_1",NA,NA,"5de28253d521a00010b4a6c6"
"11924",5,0,8,"tullamore_dew",30.99,FALSE,"H6-fill_1",NA,NA,"5de28253d521a00010b4a6c6"
"11925",6,0,0,"malibu_imported_large",23.99,FALSE,"H5-fill_3",NA,NA,"5de28253d521a00010b4a6c6"
"11926",6,0,1,"yellow_tail_red",10.99,FALSE,"H5-fill_3",NA,NA,"5de28253d521a00010b4a6c6"
"11927",6,0,2,"smirnoff_usa",16.99,FALSE,"H5-fill_3",NA,NA,"5de28253d521a00010b4a6c6"
"11928",6,0,3,"tullamore_dew",30.99,FALSE,"H5-fill_3",NA,33.99,"5de28253d521a00010b4a6c6"
"11929",6,0,4,"rum_chata_us",24.99,FALSE,"H5-fill_3",NA,30.99,"5de28253d521a00010b4a6c6"
"11930",6,0,5,"malibu_imported",17.99,TRUE,"H5-fill_3",20655,NA,"5de28253d521a00010b4a6c6"
"11931",6,0,6,"yellow_tail_white",10.99,FALSE,"H5-fill_3",NA,NA,"5de28253d521a00010b4a6c6"
"11932",6,0,7,"tanqueray_imported",25.99,FALSE,"H5-fill_3",NA,NA,"5de28253d521a00010b4a6c6"
"11933",6,0,8,"smirnoff_usa_large",23.99,FALSE,"H5-fill_3",NA,29.99,"5de28253d521a00010b4a6c6"
"11934",7,0,0,"tanqueray_imported",25.99,FALSE,"H7-fill_3",NA,NA,"5de28253d521a00010b4a6c6"
"11935",7,0,1,"malibu_imported",17.99,TRUE,"H7-fill_3",2195,23.99,"5de28253d521a00010b4a6c6"
"11936",7,0,2,"yellow_tail_white",10.99,FALSE,"H7-fill_3",NA,NA,"5de28253d521a00010b4a6c6"
"11937",7,0,3,"tullamore_dew",30.99,FALSE,"H7-fill_3",NA,NA,"5de28253d521a00010b4a6c6"
"11938",7,0,4,"smirnoff_usa",16.99,FALSE,"H7-fill_3",NA,NA,"5de28253d521a00010b4a6c6"
"11939",7,0,5,"malibu_imported_large",23.99,FALSE,"H7-fill_3",NA,NA,"5de28253d521a00010b4a6c6"
"11940",7,0,6,"rum_chata_us",24.99,FALSE,"H7-fill_3",NA,30.99,"5de28253d521a00010b4a6c6"
"11941",7,0,7,"yellow_tail_red",10.99,FALSE,"H7-fill_3",NA,NA,"5de28253d521a00010b4a6c6"
"11942",7,0,8,"smirnoff_usa_large",23.99,FALSE,"H7-fill_3",NA,NA,"5de28253d521a00010b4a6c6"
"11943",8,0,0,"tullamore_dew",30.99,FALSE,"H6-fill_5",NA,34.99,"5de28253d521a00010b4a6c6"
"11944",8,0,1,"malibu_imported_large",23.99,TRUE,"H6-fill_5",5958,29.99,"5de28253d521a00010b4a6c6"
"11945",8,0,2,"malibu_imported",17.99,FALSE,"H6-fill_5",NA,NA,"5de28253d521a00010b4a6c6"
"11946",8,0,3,"yellow_tail_red",10.99,FALSE,"H6-fill_5",NA,NA,"5de28253d521a00010b4a6c6"
"11947",8,0,4,"smirnoff_usa_large",23.99,FALSE,"H6-fill_5",NA,28.99,"5de28253d521a00010b4a6c6"
"11948",8,0,5,"rum_chata_us",24.99,FALSE,"H6-fill_5",NA,30.99,"5de28253d521a00010b4a6c6"
"11949",8,0,6,"smirnoff_usa",16.99,FALSE,"H6-fill_5",NA,NA,"5de28253d521a00010b4a6c6"
"11950",8,0,7,"tanqueray_imported",25.99,FALSE,"H6-fill_5",NA,NA,"5de28253d521a00010b4a6c6"
"11951",8,0,8,"yellow_tail_white",10.99,FALSE,"H6-fill_5",NA,NA,"5de28253d521a00010b4a6c6"
"11952",9,0,0,"carolans_large",26.99,FALSE,"H6-3",NA,NA,"5de28253d521a00010b4a6c6"
"11953",9,0,1,"baileys_750ml_usa",23.99,FALSE,"H6-3",NA,29.99,"5de28253d521a00010b4a6c6"
"11954",9,0,2,"bushmills_large",42.99,FALSE,"H6-3",NA,NA,"5de28253d521a00010b4a6c6"
"11955",9,0,3,"carolans_small",17.99,FALSE,"H6-3",NA,NA,"5de28253d521a00010b4a6c6"
"11956",9,0,4,"kahlua",23.99,TRUE,"H6-3",5019,NA,"5de28253d521a00010b4a6c6"
"11957",9,0,5,"five_farms",34.99,FALSE,"H6-3",NA,NA,"5de28253d521a00010b4a6c6"
"11958",9,0,6,"grand_marnier",30.99,FALSE,"H6-3",NA,NA,"5de28253d521a00010b4a6c6"
"11959",9,0,7,"saint_brendans",17.99,FALSE,"H6-3",NA,NA,"5de28253d521a00010b4a6c6"
"11960",9,0,8,"bushmills_small",26.99,FALSE,"H6-3",NA,NA,"5de28253d521a00010b4a6c6"
"11961",9,0,9,"kerrygold",21.99,FALSE,"H6-3",NA,NA,"5de28253d521a00010b4a6c6"
"16711",0,0,0,"tullamore_dew",30.99,FALSE,"H5-fill_1",NA,NA,"5de2821d625af00010e7adcc"
"16712",0,0,1,"tanqueray_imported",25.99,FALSE,"H5-fill_1",NA,NA,"5de2821d625af00010e7adcc"
"16713",0,0,2,"malibu_imported_large",23.99,FALSE,"H5-fill_1",NA,30.99,"5de2821d625af00010e7adcc"
"16714",0,0,3,"rum_chata_us",24.99,FALSE,"H5-fill_1",NA,NA,"5de2821d625af00010e7adcc"
"16715",0,0,4,"smirnoff_usa_large",23.99,TRUE,"H5-fill_1",5809,NA,"5de2821d625af00010e7adcc"
"16716",0,0,5,"malibu_imported",17.99,FALSE,"H5-fill_1",NA,NA,"5de2821d625af00010e7adcc"
"16717",0,0,6,"smirnoff_usa",16.99,FALSE,"H5-fill_1",NA,23.99,"5de2821d625af00010e7adcc"
"16718",0,0,7,"yellow_tail_red",10.99,FALSE,"H5-fill_1",NA,NA,"5de2821d625af00010e7adcc"
"16719",0,0,8,"yellow_tail_white",10.99,FALSE,"H5-fill_1",NA,17.99,"5de2821d625af00010e7adcc"
"16720",1,0,0,"carolans_large",26.99,FALSE,"H7-2",NA,NA,"5de2821d625af00010e7adcc"
"16721",1,0,1,"carolans_small",17.99,TRUE,"H7-2",2618,NA,"5de2821d625af00010e7adcc"
"16722",1,0,2,"saint_brendans",17.99,FALSE,"H7-2",NA,NA,"5de2821d625af00010e7adcc"
"16723",1,0,3,"bushmills_large",42.99,FALSE,"H7-2",NA,NA,"5de2821d625af00010e7adcc"
"16724",1,0,4,"baileys_750ml_usa",27.99,FALSE,"H7-2",NA,NA,"5de2821d625af00010e7adcc"
"16725",1,0,5,"kerrygold",21.99,FALSE,"H7-2",NA,NA,"5de2821d625af00010e7adcc"
"16726",1,0,6,"kahlua",23.99,FALSE,"H7-2",NA,NA,"5de2821d625af00010e7adcc"
"16727",1,0,7,"grand_marnier",30.99,FALSE,"H7-2",NA,NA,"5de2821d625af00010e7adcc"
"16728",1,0,8,"bushmills_small",26.99,FALSE,"H7-2",NA,NA,"5de2821d625af00010e7adcc"
"16729",1,0,9,"baileys_1750ml_usa",48.99,FALSE,"H7-2",NA,56.99,"5de2821d625af00010e7adcc"
"16730",1,0,10,"five_farms",34.99,FALSE,"H7-2",NA,NA,"5de2821d625af00010e7adcc"
"16731",2,0,0,"smirnoff_usa_large",23.99,FALSE,"H6-fill_1",NA,NA,"5de2821d625af00010e7adcc"
"16732",2,0,1,"tanqueray_imported",25.99,FALSE,"H6-fill_1",NA,26.99,"5de2821d625af00010e7adcc"
"16733",2,0,2,"malibu_imported_large",23.99,FALSE,"H6-fill_1",NA,31.99,"5de2821d625af00010e7adcc"
"16734",2,0,3,"tullamore_dew",30.99,FALSE,"H6-fill_1",NA,NA,"5de2821d625af00010e7adcc"
"16735",2,0,4,"rum_chata_us",24.99,FALSE,"H6-fill_1",NA,NA,"5de2821d625af00010e7adcc"
"16736",2,0,5,"smirnoff_usa",16.99,TRUE,"H6-fill_1",1891,NA,"5de2821d625af00010e7adcc"
"16737",2,0,6,"malibu_imported",17.99,FALSE,"H6-fill_1",NA,NA,"5de2821d625af00010e7adcc"
"16738",2,0,7,"yellow_tail_red",10.99,FALSE,"H6-fill_1",NA,16.99,"5de2821d625af00010e7adcc"
"16739",2,0,8,"yellow_tail_white",10.99,FALSE,"H6-fill_1",NA,18.99,"5de2821d625af00010e7adcc"
"16740",3,0,0,"carolans_small",17.99,FALSE,"H7-5",NA,NA,"5de2821d625af00010e7adcc"
"16741",3,0,1,"kahlua",23.99,FALSE,"H7-5",NA,NA,"5de2821d625af00010e7adcc"
"16742",3,0,2,"bushmills_small",26.99,FALSE,"H7-5",NA,NA,"5de2821d625af00010e7adcc"
"16743",3,0,3,"kerrygold",21.99,FALSE,"H7-5",NA,NA,"5de2821d625af00010e7adcc"
"16744",3,0,4,"bushmills_large",42.99,FALSE,"H7-5",NA,NA,"5de2821d625af00010e7adcc"
"16745",3,0,5,"baileys_1750ml_usa",39.99,FALSE,"H7-5",NA,46.99,"5de2821d625af00010e7adcc"
"16746",3,0,6,"baileys_750ml_usa",27.99,FALSE,"H7-5",NA,NA,"5de2821d625af00010e7adcc"
"16747",3,0,7,"saint_brendans",17.99,TRUE,"H7-5",1205,NA,"5de2821d625af00010e7adcc"
"16748",3,0,8,"five_farms",34.99,FALSE,"H7-5",NA,NA,"5de2821d625af00010e7adcc"
"16749",3,0,9,"carolans_large",26.99,FALSE,"H7-5",NA,NA,"5de2821d625af00010e7adcc"
"16750",3,0,10,"grand_marnier",30.99,FALSE,"H7-5",NA,NA,"5de2821d625af00010e7adcc"
"16751",4,0,0,"bushmills_small",26.99,FALSE,"H5-5",NA,NA,"5de2821d625af00010e7adcc"
"16752",4,0,1,"kahlua",23.99,FALSE,"H5-5",NA,NA,"5de2821d625af00010e7adcc"
"16753",4,0,2,"five_farms",34.99,TRUE,"H5-5",16890,NA,"5de2821d625af00010e7adcc"
"16754",4,0,3,"bushmills_large",42.99,FALSE,"H5-5",NA,NA,"5de2821d625af00010e7adcc"
"16755",4,0,4,"grand_marnier",30.99,FALSE,"H5-5",NA,NA,"5de2821d625af00010e7adcc"
"16756",4,0,5,"kerrygold",21.99,FALSE,"H5-5",NA,NA,"5de2821d625af00010e7adcc"
"16757",4,0,6,"carolans_large",26.99,FALSE,"H5-5",NA,NA,"5de2821d625af00010e7adcc"
"16758",4,0,7,"carolans_small",17.99,FALSE,"H5-5",NA,NA,"5de2821d625af00010e7adcc"
"16759",4,0,8,"baileys_750ml_usa",22.99,FALSE,"H5-5",NA,NA,"5de2821d625af00010e7adcc"
"16760",4,0,9,"saint_brendans",17.99,FALSE,"H5-5",NA,NA,"5de2821d625af00010e7adcc"
"16761",5,0,0,"malibu_imported",17.99,FALSE,"H6-fill_3",NA,18.99,"5de2821d625af00010e7adcc"
"16762",5,0,1,"smirnoff_usa_large",23.99,FALSE,"H6-fill_3",NA,NA,"5de2821d625af00010e7adcc"
"16763",5,0,2,"tullamore_dew",30.99,FALSE,"H6-fill_3",NA,NA,"5de2821d625af00010e7adcc"
"16764",5,0,3,"malibu_imported_large",23.99,FALSE,"H6-fill_3",NA,24.99,"5de2821d625af00010e7adcc"
"16765",5,0,4,"smirnoff_usa",16.99,FALSE,"H6-fill_3",NA,21.99,"5de2821d625af00010e7adcc"
"16766",5,0,5,"rum_chata_us",24.99,TRUE,"H6-fill_3",906,NA,"5de2821d625af00010e7adcc"
"16767",5,0,6,"yellow_tail_white",10.99,FALSE,"H6-fill_3",NA,NA,"5de2821d625af00010e7adcc"
"16768",5,0,7,"tanqueray_imported",25.99,FALSE,"H6-fill_3",NA,29.99,"5de2821d625af00010e7adcc"
"16769",5,0,8,"yellow_tail_red",10.99,FALSE,"H6-fill_3",NA,NA,"5de2821d625af00010e7adcc"
"16770",6,0,0,"yellow_tail_red",10.99,FALSE,"H6-fill_4",NA,NA,"5de2821d625af00010e7adcc"
"16771",6,0,1,"tullamore_dew",30.99,FALSE,"H6-fill_4",NA,35.99,"5de2821d625af00010e7adcc"
"16772",6,0,2,"rum_chata_us",24.99,FALSE,"H6-fill_4",NA,27.99,"5de2821d625af00010e7adcc"
"16773",6,0,3,"malibu_imported",17.99,TRUE,"H6-fill_4",1147,NA,"5de2821d625af00010e7adcc"
"16774",6,0,4,"tanqueray_imported",25.99,FALSE,"H6-fill_4",NA,NA,"5de2821d625af00010e7adcc"
"16775",6,0,5,"smirnoff_usa_large",23.99,FALSE,"H6-fill_4",NA,NA,"5de2821d625af00010e7adcc"
"16776",6,0,6,"malibu_imported_large",23.99,FALSE,"H6-fill_4",NA,NA,"5de2821d625af00010e7adcc"
"16777",6,0,7,"smirnoff_usa",16.99,FALSE,"H6-fill_4",NA,NA,"5de2821d625af00010e7adcc"
"16778",6,0,8,"yellow_tail_white",10.99,FALSE,"H6-fill_4",NA,NA,"5de2821d625af00010e7adcc"
"16779",7,0,0,"malibu_imported_large",23.99,FALSE,"H7-fill_3",NA,NA,"5de2821d625af00010e7adcc"
"16780",7,0,1,"smirnoff_usa",16.99,FALSE,"H7-fill_3",NA,NA,"5de2821d625af00010e7adcc"
"16781",7,0,2,"rum_chata_us",24.99,FALSE,"H7-fill_3",NA,30.99,"5de2821d625af00010e7adcc"
"16782",7,0,3,"tullamore_dew",30.99,FALSE,"H7-fill_3",NA,NA,"5de2821d625af00010e7adcc"
"16783",7,0,4,"malibu_imported",17.99,FALSE,"H7-fill_3",NA,23.99,"5de2821d625af00010e7adcc"
"16784",7,0,5,"yellow_tail_white",10.99,FALSE,"H7-fill_3",NA,NA,"5de2821d625af00010e7adcc"
"16785",7,0,6,"yellow_tail_red",10.99,TRUE,"H7-fill_3",1221,NA,"5de2821d625af00010e7adcc"
"16786",7,0,7,"smirnoff_usa_large",23.99,FALSE,"H7-fill_3",NA,NA,"5de2821d625af00010e7adcc"
"16787",7,0,8,"tanqueray_imported",25.99,FALSE,"H7-fill_3",NA,NA,"5de2821d625af00010e7adcc"
"16788",8,0,0,"carolans_small",17.99,FALSE,"H5-4",NA,NA,"5de2821d625af00010e7adcc"
"16789",8,0,1,"five_farms",34.99,FALSE,"H5-4",NA,NA,"5de2821d625af00010e7adcc"
"16790",8,0,2,"saint_brendans",17.99,FALSE,"H5-4",NA,NA,"5de2821d625af00010e7adcc"
"16791",8,0,3,"kerrygold",21.99,FALSE,"H5-4",NA,NA,"5de2821d625af00010e7adcc"
"16792",8,0,4,"carolans_large",26.99,FALSE,"H5-4",NA,NA,"5de2821d625af00010e7adcc"
"16793",8,0,5,"grand_marnier",30.99,FALSE,"H5-4",NA,NA,"5de2821d625af00010e7adcc"
"16794",8,0,6,"baileys_750ml_usa",24.99,FALSE,"H5-4",NA,NA,"5de2821d625af00010e7adcc"
"16795",8,0,7,"bushmills_large",42.99,FALSE,"H5-4",NA,NA,"5de2821d625af00010e7adcc"
"16796",8,0,8,"kahlua",23.99,TRUE,"H5-4",890,NA,"5de2821d625af00010e7adcc"
"16797",8,0,9,"bushmills_small",26.99,FALSE,"H5-4",NA,NA,"5de2821d625af00010e7adcc"
"16798",9,0,0,"yellow_tail_red",10.99,FALSE,"H7-fill_1",NA,NA,"5de2821d625af00010e7adcc"
"16799",9,0,1,"tullamore_dew",30.99,FALSE,"H7-fill_1",NA,NA,"5de2821d625af00010e7adcc"
"16800",9,0,2,"smirnoff_usa",16.99,FALSE,"H7-fill_1",NA,NA,"5de2821d625af00010e7adcc"
"16801",9,0,3,"malibu_imported",17.99,FALSE,"H7-fill_1",NA,NA,"5de2821d625af00010e7adcc"
"16802",9,0,4,"tanqueray_imported",25.99,FALSE,"H7-fill_1",NA,32.99,"5de2821d625af00010e7adcc"
"16803",9,0,5,"malibu_imported_large",23.99,FALSE,"H7-fill_1",NA,NA,"5de2821d625af00010e7adcc"
"16804",9,0,6,"yellow_tail_white",10.99,TRUE,"H7-fill_1",1329,NA,"5de2821d625af00010e7adcc"
"16805",9,0,7,"rum_chata_us",24.99,FALSE,"H7-fill_1",NA,30.99,"5de2821d625af00010e7adcc"
"16806",9,0,8,"smirnoff_usa_large",23.99,FALSE,"H7-fill_1",NA,24.99,"5de2821d625af00010e7adcc"
"17069",0,0,0,"saint_brendans",17.99,FALSE,"H5-3",NA,NA,"5de28917d521a00010b4caed"
"17070",0,0,1,"carolans_small",17.99,FALSE,"H5-3",NA,NA,"5de28917d521a00010b4caed"
"17071",0,0,2,"carolans_large",26.99,FALSE,"H5-3",NA,NA,"5de28917d521a00010b4caed"
"17072",0,0,3,"grand_marnier",30.99,FALSE,"H5-3",NA,NA,"5de28917d521a00010b4caed"
"17073",0,0,4,"five_farms",34.99,FALSE,"H5-3",NA,NA,"5de28917d521a00010b4caed"
"17074",0,0,5,"bushmills_large",42.99,FALSE,"H5-3",NA,NA,"5de28917d521a00010b4caed"
"17075",0,0,6,"kerrygold",21.99,FALSE,"H5-3",NA,NA,"5de28917d521a00010b4caed"
"17076",0,0,7,"kahlua",23.99,FALSE,"H5-3",NA,NA,"5de28917d521a00010b4caed"
"17077",0,0,8,"baileys_750ml_usa",26.99,TRUE,"H5-3",7586,NA,"5de28917d521a00010b4caed"
"17078",0,0,9,"bushmills_small",26.99,FALSE,"H5-3",NA,NA,"5de28917d521a00010b4caed"
"17079",1,0,0,"yellow_tail_red",10.99,FALSE,"H7-fill_6",NA,NA,"5de28917d521a00010b4caed"
"17080",1,0,1,"smirnoff_usa",16.99,FALSE,"H7-fill_6",NA,NA,"5de28917d521a00010b4caed"
"17081",1,0,2,"yellow_tail_white",10.99,FALSE,"H7-fill_6",NA,NA,"5de28917d521a00010b4caed"
"17082",1,0,3,"rum_chata_us",24.99,FALSE,"H7-fill_6",NA,NA,"5de28917d521a00010b4caed"
"17083",1,0,4,"tanqueray_imported",25.99,FALSE,"H7-fill_6",NA,NA,"5de28917d521a00010b4caed"
"17084",1,0,5,"smirnoff_usa_large",23.99,FALSE,"H7-fill_6",NA,30.99,"5de28917d521a00010b4caed"
"17085",1,0,6,"tullamore_dew",30.99,FALSE,"H7-fill_6",NA,NA,"5de28917d521a00010b4caed"
"17086",1,0,7,"malibu_imported_large",23.99,FALSE,"H7-fill_6",NA,NA,"5de28917d521a00010b4caed"
"17087",1,0,8,"malibu_imported",17.99,TRUE,"H7-fill_6",11299,NA,"5de28917d521a00010b4caed"
"17088",2,0,0,"malibu_imported_large",23.99,TRUE,"H6-fill_1",12347,31.99,"5de28917d521a00010b4caed"
"17089",2,0,1,"rum_chata_us",24.99,FALSE,"H6-fill_1",NA,NA,"5de28917d521a00010b4caed"
"17090",2,0,2,"tullamore_dew",30.99,FALSE,"H6-fill_1",NA,NA,"5de28917d521a00010b4caed"
"17091",2,0,3,"smirnoff_usa",16.99,FALSE,"H6-fill_1",NA,NA,"5de28917d521a00010b4caed"
"17092",2,0,4,"yellow_tail_red",10.99,FALSE,"H6-fill_1",NA,16.99,"5de28917d521a00010b4caed"
"17093",2,0,5,"yellow_tail_white",10.99,FALSE,"H6-fill_1",NA,18.99,"5de28917d521a00010b4caed"
"17094",2,0,6,"tanqueray_imported",25.99,FALSE,"H6-fill_1",NA,26.99,"5de28917d521a00010b4caed"
"17095",2,0,7,"smirnoff_usa_large",23.99,FALSE,"H6-fill_1",NA,NA,"5de28917d521a00010b4caed"
"17096",2,0,8,"malibu_imported",17.99,FALSE,"H6-fill_1",NA,NA,"5de28917d521a00010b4caed"
"17097",3,0,0,"rum_chata_us",24.99,FALSE,"H6-fill_2",NA,NA,"5de28917d521a00010b4caed"
"17098",3,0,1,"smirnoff_usa_large",23.99,FALSE,"H6-fill_2",NA,NA,"5de28917d521a00010b4caed"
"17099",3,0,2,"tanqueray_imported",25.99,FALSE,"H6-fill_2",NA,30.99,"5de28917d521a00010b4caed"
"17100",3,0,3,"malibu_imported_large",23.99,TRUE,"H6-fill_2",7921,NA,"5de28917d521a00010b4caed"
"17101",3,0,4,"malibu_imported",17.99,FALSE,"H6-fill_2",NA,19.99,"5de28917d521a00010b4caed"
"17102",3,0,5,"yellow_tail_white",10.99,FALSE,"H6-fill_2",NA,15.99,"5de28917d521a00010b4caed"
"17103",3,0,6,"smirnoff_usa",16.99,FALSE,"H6-fill_2",NA,NA,"5de28917d521a00010b4caed"
"17104",3,0,7,"tullamore_dew",30.99,FALSE,"H6-fill_2",NA,NA,"5de28917d521a00010b4caed"
"17105",3,0,8,"yellow_tail_red",10.99,FALSE,"H6-fill_2",NA,NA,"5de28917d521a00010b4caed"
"17106",4,0,0,"five_farms",34.99,FALSE,"H6-4",NA,NA,"5de28917d521a00010b4caed"
"17107",4,0,1,"carolans_small",17.99,FALSE,"H6-4",NA,NA,"5de28917d521a00010b4caed"
"17108",4,0,2,"grand_marnier",30.99,FALSE,"H6-4",NA,NA,"5de28917d521a00010b4caed"
"17109",4,0,3,"bushmills_large",42.99,FALSE,"H6-4",NA,NA,"5de28917d521a00010b4caed"
"17110",4,0,4,"saint_brendans",17.99,FALSE,"H6-4",NA,NA,"5de28917d521a00010b4caed"
"17111",4,0,5,"kerrygold",21.99,FALSE,"H6-4",NA,NA,"5de28917d521a00010b4caed"
"17112",4,0,6,"kahlua",23.99,FALSE,"H6-4",NA,NA,"5de28917d521a00010b4caed"
"17113",4,0,7,"bushmills_small",26.99,FALSE,"H6-4",NA,NA,"5de28917d521a00010b4caed"
"17114",4,0,8,"baileys_750ml_usa",22.99,TRUE,"H6-4",8226,29.99,"5de28917d521a00010b4caed"
"17115",4,0,9,"carolans_large",26.99,FALSE,"H6-4",NA,NA,"5de28917d521a00010b4caed"
"17116",5,0,0,"baileys_750ml_usa",27.99,TRUE,"H7-2",5473,NA,"5de28917d521a00010b4caed"
"17117",5,0,1,"bushmills_large",42.99,FALSE,"H7-2",NA,NA,"5de28917d521a00010b4caed"
"17118",5,0,2,"five_farms",34.99,FALSE,"H7-2",NA,NA,"5de28917d521a00010b4caed"
"17119",5,0,3,"carolans_small",17.99,FALSE,"H7-2",NA,NA,"5de28917d521a00010b4caed"
"17120",5,0,4,"bushmills_small",26.99,FALSE,"H7-2",NA,NA,"5de28917d521a00010b4caed"
"17121",5,0,5,"kerrygold",21.99,FALSE,"H7-2",NA,NA,"5de28917d521a00010b4caed"
"17122",5,0,6,"kahlua",23.99,FALSE,"H7-2",NA,NA,"5de28917d521a00010b4caed"
"17123",5,0,7,"baileys_1750ml_usa",48.99,FALSE,"H7-2",NA,56.99,"5de28917d521a00010b4caed"
"17124",5,0,8,"carolans_large",26.99,FALSE,"H7-2",NA,NA,"5de28917d521a00010b4caed"
"17125",5,0,9,"grand_marnier",30.99,FALSE,"H7-2",NA,NA,"5de28917d521a00010b4caed"
"17126",5,0,10,"saint_brendans",17.99,FALSE,"H7-2",NA,NA,"5de28917d521a00010b4caed"
"17127",6,0,0,"saint_brendans",17.99,FALSE,"H6-1",NA,NA,"5de28917d521a00010b4caed"
"17128",6,0,1,"kahlua",23.99,FALSE,"H6-1",NA,NA,"5de28917d521a00010b4caed"
"17129",6,0,2,"carolans_large",26.99,FALSE,"H6-1",NA,NA,"5de28917d521a00010b4caed"
"17130",6,0,3,"bushmills_small",26.99,FALSE,"H6-1",NA,NA,"5de28917d521a00010b4caed"
"17131",6,0,4,"carolans_small",17.99,FALSE,"H6-1",NA,NA,"5de28917d521a00010b4caed"
"17132",6,0,5,"kerrygold",21.99,FALSE,"H6-1",NA,NA,"5de28917d521a00010b4caed"
"17133",6,0,6,"grand_marnier",30.99,FALSE,"H6-1",NA,NA,"5de28917d521a00010b4caed"
"17134",6,0,7,"five_farms",34.99,FALSE,"H6-1",NA,NA,"5de28917d521a00010b4caed"
"17135",6,0,8,"baileys_750ml_usa",25.99,TRUE,"H6-1",3679,29.99,"5de28917d521a00010b4caed"
"17136",6,0,9,"bushmills_large",42.99,FALSE,"H6-1",NA,NA,"5de28917d521a00010b4caed"
"17137",7,0,0,"smirnoff_usa_large",23.99,FALSE,"H6-fill_6",NA,NA,"5de28917d521a00010b4caed"
"17138",7,0,1,"malibu_imported_large",23.99,TRUE,"H6-fill_6",2521,NA,"5de28917d521a00010b4caed"
"17139",7,0,2,"yellow_tail_white",10.99,FALSE,"H6-fill_6",NA,NA,"5de28917d521a00010b4caed"
"17140",7,0,3,"tullamore_dew",30.99,FALSE,"H6-fill_6",NA,32.99,"5de28917d521a00010b4caed"
"17141",7,0,4,"yellow_tail_red",10.99,FALSE,"H6-fill_6",NA,NA,"5de28917d521a00010b4caed"
"17142",7,0,5,"smirnoff_usa",16.99,FALSE,"H6-fill_6",NA,NA,"5de28917d521a00010b4caed"
"17143",7,0,6,"malibu_imported",17.99,FALSE,"H6-fill_6",NA,20.99,"5de28917d521a00010b4caed"
"17144",7,0,7,"rum_chata_us",24.99,FALSE,"H6-fill_6",NA,NA,"5de28917d521a00010b4caed"
"17145",7,0,8,"tanqueray_imported",25.99,FALSE,"H6-fill_6",NA,NA,"5de28917d521a00010b4caed"
"17146",8,0,0,"tullamore_dew",30.99,FALSE,"H5-fill_4",NA,NA,"5de28917d521a00010b4caed"
"17147",8,0,1,"smirnoff_usa",16.99,FALSE,"H5-fill_4",NA,NA,"5de28917d521a00010b4caed"
"17148",8,0,2,"smirnoff_usa_large",23.99,FALSE,"H5-fill_4",NA,NA,"5de28917d521a00010b4caed"
"17149",8,0,3,"malibu_imported",17.99,FALSE,"H5-fill_4",NA,22.99,"5de28917d521a00010b4caed"
"17150",8,0,4,"tanqueray_imported",25.99,FALSE,"H5-fill_4",NA,NA,"5de28917d521a00010b4caed"
"17151",8,0,5,"yellow_tail_red",10.99,FALSE,"H5-fill_4",NA,NA,"5de28917d521a00010b4caed"
"17152",8,0,6,"malibu_imported_large",23.99,TRUE,"H5-fill_4",3152,NA,"5de28917d521a00010b4caed"
"17153",8,0,7,"rum_chata_us",24.99,FALSE,"H5-fill_4",NA,NA,"5de28917d521a00010b4caed"
"17154",8,0,8,"yellow_tail_white",10.99,FALSE,"H5-fill_4",NA,NA,"5de28917d521a00010b4caed"
"17155",9,0,0,"baileys_750ml_usa",28.99,TRUE,"H5-2",4029,NA,"5de28917d521a00010b4caed"
"17156",9,0,1,"bushmills_small",26.99,FALSE,"H5-2",NA,NA,"5de28917d521a00010b4caed"
"17157",9,0,2,"bushmills_large",42.99,FALSE,"H5-2",NA,NA,"5de28917d521a00010b4caed"
"17158",9,0,3,"kerrygold",21.99,FALSE,"H5-2",NA,NA,"5de28917d521a00010b4caed"
"17159",9,0,4,"grand_marnier",30.99,FALSE,"H5-2",NA,NA,"5de28917d521a00010b4caed"
"17160",9,0,5,"carolans_large",26.99,FALSE,"H5-2",NA,NA,"5de28917d521a00010b4caed"
"17161",9,0,6,"five_farms",34.99,FALSE,"H5-2",NA,NA,"5de28917d521a00010b4caed"
"17162",9,0,7,"saint_brendans",17.99,FALSE,"H5-2",NA,NA,"5de28917d521a00010b4caed"
"17163",9,0,8,"carolans_small",17.99,FALSE,"H5-2",NA,NA,"5de28917d521a00010b4caed"
"17164",9,0,9,"kahlua",23.99,FALSE,"H5-2",NA,NA,"5de28917d521a00010b4caed"
"17247",0,0,0,"grand_marnier",30.99,FALSE,"H7-5",NA,NA,"5de28961d521a00010b4cb0e"
"17248",0,0,1,"baileys_1750ml_usa",39.99,FALSE,"H7-5",NA,46.99,"5de28961d521a00010b4cb0e"
"17249",0,0,2,"five_farms",34.99,FALSE,"H7-5",NA,NA,"5de28961d521a00010b4cb0e"
"17250",0,0,3,"carolans_small",17.99,FALSE,"H7-5",NA,NA,"5de28961d521a00010b4cb0e"
"17251",0,0,4,"bushmills_small",26.99,FALSE,"H7-5",NA,NA,"5de28961d521a00010b4cb0e"
"17252",0,0,5,"carolans_large",26.99,FALSE,"H7-5",NA,NA,"5de28961d521a00010b4cb0e"
"17253",0,0,6,"saint_brendans",17.99,FALSE,"H7-5",NA,NA,"5de28961d521a00010b4cb0e"
"17254",0,0,7,"kerrygold",21.99,FALSE,"H7-5",NA,NA,"5de28961d521a00010b4cb0e"
"17255",0,0,8,"baileys_750ml_usa",27.99,TRUE,"H7-5",15843,NA,"5de28961d521a00010b4cb0e"
"17256",0,0,9,"kahlua",23.99,FALSE,"H7-5",NA,NA,"5de28961d521a00010b4cb0e"
"17257",0,0,10,"bushmills_large",42.99,FALSE,"H7-5",NA,NA,"5de28961d521a00010b4cb0e"
"17258",1,0,0,"smirnoff_usa_large",23.99,FALSE,"H5-fill_2",NA,NA,"5de28961d521a00010b4cb0e"
"17259",1,0,1,"tullamore_dew",30.99,FALSE,"H5-fill_2",NA,NA,"5de28961d521a00010b4cb0e"
"17260",1,0,2,"malibu_imported_large",23.99,TRUE,"H5-fill_2",7061,NA,"5de28961d521a00010b4cb0e"
"17261",1,0,3,"rum_chata_us",24.99,FALSE,"H5-fill_2",NA,NA,"5de28961d521a00010b4cb0e"
"17262",1,0,4,"malibu_imported",17.99,FALSE,"H5-fill_2",NA,NA,"5de28961d521a00010b4cb0e"
"17263",1,0,5,"yellow_tail_red",10.99,FALSE,"H5-fill_2",NA,NA,"5de28961d521a00010b4cb0e"
"17264",1,0,6,"yellow_tail_white",10.99,FALSE,"H5-fill_2",NA,14.99,"5de28961d521a00010b4cb0e"
"17265",1,0,7,"tanqueray_imported",25.99,FALSE,"H5-fill_2",NA,33.99,"5de28961d521a00010b4cb0e"
"17266",1,0,8,"smirnoff_usa",16.99,FALSE,"H5-fill_2",NA,19.99,"5de28961d521a00010b4cb0e"
"17267",2,0,0,"smirnoff_usa_large",23.99,TRUE,"H5-fill_1",2523,NA,"5de28961d521a00010b4cb0e"
"17268",2,0,1,"tullamore_dew",30.99,FALSE,"H5-fill_1",NA,NA,"5de28961d521a00010b4cb0e"
"17269",2,0,2,"smirnoff_usa",16.99,FALSE,"H5-fill_1",NA,23.99,"5de28961d521a00010b4cb0e"
"17270",2,0,3,"malibu_imported",17.99,FALSE,"H5-fill_1",NA,NA,"5de28961d521a00010b4cb0e"
"17271",2,0,4,"yellow_tail_white",10.99,FALSE,"H5-fill_1",NA,17.99,"5de28961d521a00010b4cb0e"
"17272",2,0,5,"rum_chata_us",24.99,FALSE,"H5-fill_1",NA,NA,"5de28961d521a00010b4cb0e"
"17273",2,0,6,"malibu_imported_large",23.99,FALSE,"H5-fill_1",NA,30.99,"5de28961d521a00010b4cb0e"
"17274",2,0,7,"tanqueray_imported",25.99,FALSE,"H5-fill_1",NA,NA,"5de28961d521a00010b4cb0e"
"17275",2,0,8,"yellow_tail_red",10.99,FALSE,"H5-fill_1",NA,NA,"5de28961d521a00010b4cb0e"
"17276",3,0,0,"smirnoff_usa_large",23.99,FALSE,"H7-fill_3",NA,NA,"5de28961d521a00010b4cb0e"
"17277",3,0,1,"yellow_tail_white",10.99,FALSE,"H7-fill_3",NA,NA,"5de28961d521a00010b4cb0e"
"17278",3,0,2,"malibu_imported_large",23.99,FALSE,"H7-fill_3",NA,NA,"5de28961d521a00010b4cb0e"
"17279",3,0,3,"smirnoff_usa",16.99,FALSE,"H7-fill_3",NA,NA,"5de28961d521a00010b4cb0e"
"17280",3,0,4,"tanqueray_imported",25.99,TRUE,"H7-fill_3",17882,NA,"5de28961d521a00010b4cb0e"
"17281",3,0,5,"malibu_imported",17.99,FALSE,"H7-fill_3",NA,23.99,"5de28961d521a00010b4cb0e"
"17282",3,0,6,"yellow_tail_red",10.99,FALSE,"H7-fill_3",NA,NA,"5de28961d521a00010b4cb0e"
"17283",3,0,7,"tullamore_dew",30.99,FALSE,"H7-fill_3",NA,NA,"5de28961d521a00010b4cb0e"
"17284",3,0,8,"rum_chata_us",24.99,FALSE,"H7-fill_3",NA,30.99,"5de28961d521a00010b4cb0e"
"17285",4,0,0,"baileys_750ml_usa",30.99,FALSE,"H5-1",NA,NA,"5de28961d521a00010b4cb0e"
"17286",4,0,1,"carolans_small",17.99,FALSE,"H5-1",NA,NA,"5de28961d521a00010b4cb0e"
"17287",4,0,2,"grand_marnier",30.99,FALSE,"H5-1",NA,NA,"5de28961d521a00010b4cb0e"
"17288",4,0,3,"kerrygold",21.99,FALSE,"H5-1",NA,NA,"5de28961d521a00010b4cb0e"
"17289",4,0,4,"kahlua",23.99,FALSE,"H5-1",NA,NA,"5de28961d521a00010b4cb0e"
"17290",4,0,5,"bushmills_large",42.99,FALSE,"H5-1",NA,NA,"5de28961d521a00010b4cb0e"
"17291",4,0,6,"bushmills_small",26.99,FALSE,"H5-1",NA,NA,"5de28961d521a00010b4cb0e"
"17292",4,0,7,"five_farms",34.99,FALSE,"H5-1",NA,NA,"5de28961d521a00010b4cb0e"
"17293",4,0,8,"carolans_large",26.99,TRUE,"H5-1",4128,NA,"5de28961d521a00010b4cb0e"
"17294",4,0,9,"saint_brendans",17.99,FALSE,"H5-1",NA,NA,"5de28961d521a00010b4cb0e"
"17295",5,0,0,"five_farms",34.99,FALSE,"H7-1",NA,NA,"5de28961d521a00010b4cb0e"
"17296",5,0,1,"baileys_1750ml_usa",51.99,TRUE,"H7-1",6356,56.99,"5de28961d521a00010b4cb0e"
"17297",5,0,2,"bushmills_small",26.99,FALSE,"H7-1",NA,NA,"5de28961d521a00010b4cb0e"
"17298",5,0,3,"baileys_750ml_usa",27.99,FALSE,"H7-1",NA,NA,"5de28961d521a00010b4cb0e"
"17299",5,0,4,"saint_brendans",17.99,FALSE,"H7-1",NA,NA,"5de28961d521a00010b4cb0e"
"17300",5,0,5,"carolans_large",26.99,FALSE,"H7-1",NA,NA,"5de28961d521a00010b4cb0e"
"17301",5,0,6,"kahlua",23.99,FALSE,"H7-1",NA,NA,"5de28961d521a00010b4cb0e"
"17302",5,0,7,"bushmills_large",42.99,FALSE,"H7-1",NA,NA,"5de28961d521a00010b4cb0e"
"17303",5,0,8,"carolans_small",17.99,FALSE,"H7-1",NA,NA,"5de28961d521a00010b4cb0e"
"17304",5,0,9,"kerrygold",21.99,FALSE,"H7-1",NA,NA,"5de28961d521a00010b4cb0e"
"17305",5,0,10,"grand_marnier",30.99,FALSE,"H7-1",NA,NA,"5de28961d521a00010b4cb0e"
"17306",6,0,0,"kerrygold",21.99,FALSE,"H7-3",NA,NA,"5de28961d521a00010b4cb0e"
"17307",6,0,1,"carolans_large",26.99,TRUE,"H7-3",1480,NA,"5de28961d521a00010b4cb0e"
"17308",6,0,2,"grand_marnier",30.99,FALSE,"H7-3",NA,NA,"5de28961d521a00010b4cb0e"
"17309",6,0,3,"baileys_1750ml_usa",45.99,FALSE,"H7-3",NA,56.99,"5de28961d521a00010b4cb0e"
"17310",6,0,4,"five_farms",34.99,FALSE,"H7-3",NA,NA,"5de28961d521a00010b4cb0e"
"17311",6,0,5,"saint_brendans",17.99,FALSE,"H7-3",NA,NA,"5de28961d521a00010b4cb0e"
"17312",6,0,6,"carolans_small",17.99,FALSE,"H7-3",NA,NA,"5de28961d521a00010b4cb0e"
"17313",6,0,7,"kahlua",23.99,FALSE,"H7-3",NA,NA,"5de28961d521a00010b4cb0e"
"17314",6,0,8,"bushmills_small",26.99,FALSE,"H7-3",NA,NA,"5de28961d521a00010b4cb0e"
"17315",6,0,9,"baileys_750ml_usa",27.99,FALSE,"H7-3",NA,NA,"5de28961d521a00010b4cb0e"
"17316",6,0,10,"bushmills_large",42.99,FALSE,"H7-3",NA,NA,"5de28961d521a00010b4cb0e"
"17317",7,0,0,"smirnoff_usa",16.99,FALSE,"H6-fill_3",NA,21.99,"5de28961d521a00010b4cb0e"
"17318",7,0,1,"tanqueray_imported",25.99,FALSE,"H6-fill_3",NA,29.99,"5de28961d521a00010b4cb0e"
"17319",7,0,2,"rum_chata_us",24.99,TRUE,"H6-fill_3",6859,NA,"5de28961d521a00010b4cb0e"
"17320",7,0,3,"tullamore_dew",30.99,FALSE,"H6-fill_3",NA,NA,"5de28961d521a00010b4cb0e"
"17321",7,0,4,"yellow_tail_white",10.99,FALSE,"H6-fill_3",NA,NA,"5de28961d521a00010b4cb0e"
"17322",7,0,5,"smirnoff_usa_large",23.99,FALSE,"H6-fill_3",NA,NA,"5de28961d521a00010b4cb0e"
"17323",7,0,6,"malibu_imported_large",23.99,FALSE,"H6-fill_3",NA,24.99,"5de28961d521a00010b4cb0e"
"17324",7,0,7,"malibu_imported",17.99,FALSE,"H6-fill_3",NA,18.99,"5de28961d521a00010b4cb0e"
"17325",7,0,8,"yellow_tail_red",10.99,FALSE,"H6-fill_3",NA,NA,"5de28961d521a00010b4cb0e"
"17326",8,0,0,"smirnoff_usa",16.99,FALSE,"H5-fill_5",NA,17.99,"5de28961d521a00010b4cb0e"
"17327",8,0,1,"tanqueray_imported",25.99,FALSE,"H5-fill_5",NA,NA,"5de28961d521a00010b4cb0e"
"17328",8,0,2,"tullamore_dew",30.99,FALSE,"H5-fill_5",NA,36.99,"5de28961d521a00010b4cb0e"
"17329",8,0,3,"yellow_tail_white",10.99,FALSE,"H5-fill_5",NA,NA,"5de28961d521a00010b4cb0e"
"17330",8,0,4,"malibu_imported_large",23.99,TRUE,"H5-fill_5",12670,NA,"5de28961d521a00010b4cb0e"
"17331",8,0,5,"yellow_tail_red",10.99,FALSE,"H5-fill_5",NA,17.99,"5de28961d521a00010b4cb0e"
"17332",8,0,6,"smirnoff_usa_large",23.99,FALSE,"H5-fill_5",NA,NA,"5de28961d521a00010b4cb0e"
"17333",8,0,7,"rum_chata_us",24.99,FALSE,"H5-fill_5",NA,26.99,"5de28961d521a00010b4cb0e"
"17334",8,0,8,"malibu_imported",17.99,FALSE,"H5-fill_5",NA,NA,"5de28961d521a00010b4cb0e"
"17335",9,0,0,"kahlua",23.99,FALSE,"H6-4",NA,NA,"5de28961d521a00010b4cb0e"
"17336",9,0,1,"bushmills_large",42.99,FALSE,"H6-4",NA,NA,"5de28961d521a00010b4cb0e"
"17337",9,0,2,"grand_marnier",30.99,FALSE,"H6-4",NA,NA,"5de28961d521a00010b4cb0e"
"17338",9,0,3,"baileys_750ml_usa",22.99,FALSE,"H6-4",NA,29.99,"5de28961d521a00010b4cb0e"
"17339",9,0,4,"carolans_small",17.99,FALSE,"H6-4",NA,NA,"5de28961d521a00010b4cb0e"
"17340",9,0,5,"kerrygold",21.99,FALSE,"H6-4",NA,NA,"5de28961d521a00010b4cb0e"
"17341",9,0,6,"carolans_large",26.99,TRUE,"H6-4",4006,NA,"5de28961d521a00010b4cb0e"
"17342",9,0,7,"five_farms",34.99,FALSE,"H6-4",NA,NA,"5de28961d521a00010b4cb0e"
"17343",9,0,8,"bushmills_small",26.99,FALSE,"H6-4",NA,NA,"5de28961d521a00010b4cb0e"
"17344",9,0,9,"saint_brendans",17.99,FALSE,"H6-4",NA,NA,"5de28961d521a00010b4cb0e"
"17345",0,0,0,"grand_marnier",30.99,FALSE,"H7-4",NA,NA,"5de28a28d521a00010b4cbcc"
"17346",0,0,1,"carolans_small",17.99,FALSE,"H7-4",NA,NA,"5de28a28d521a00010b4cbcc"
"17347",0,0,2,"bushmills_large",42.99,FALSE,"H7-4",NA,NA,"5de28a28d521a00010b4cbcc"
"17348",0,0,3,"five_farms",34.99,FALSE,"H7-4",NA,NA,"5de28a28d521a00010b4cbcc"
"17349",0,0,4,"kerrygold",21.99,FALSE,"H7-4",NA,NA,"5de28a28d521a00010b4cbcc"
"17350",0,0,5,"carolans_large",26.99,FALSE,"H7-4",NA,NA,"5de28a28d521a00010b4cbcc"
"17351",0,0,6,"baileys_750ml_usa",27.99,TRUE,"H7-4",29127,NA,"5de28a28d521a00010b4cbcc"
"17352",0,0,7,"saint_brendans",17.99,FALSE,"H7-4",NA,NA,"5de28a28d521a00010b4cbcc"
"17353",0,0,8,"baileys_1750ml_usa",42.99,FALSE,"H7-4",NA,46.99,"5de28a28d521a00010b4cbcc"
"17354",0,0,9,"kahlua",23.99,FALSE,"H7-4",NA,NA,"5de28a28d521a00010b4cbcc"
"17355",0,0,10,"bushmills_small",26.99,FALSE,"H7-4",NA,NA,"5de28a28d521a00010b4cbcc"
"17356",1,0,0,"rum_chata_us",24.99,FALSE,"H7-fill_6",NA,NA,"5de28a28d521a00010b4cbcc"
"17357",1,0,1,"yellow_tail_white",10.99,FALSE,"H7-fill_6",NA,NA,"5de28a28d521a00010b4cbcc"
"17358",1,0,2,"malibu_imported_large",23.99,TRUE,"H7-fill_6",22048,NA,"5de28a28d521a00010b4cbcc"
"17359",1,0,3,"malibu_imported",17.99,FALSE,"H7-fill_6",NA,NA,"5de28a28d521a00010b4cbcc"
"17360",1,0,4,"tanqueray_imported",25.99,FALSE,"H7-fill_6",NA,NA,"5de28a28d521a00010b4cbcc"
"17361",1,0,5,"smirnoff_usa_large",23.99,FALSE,"H7-fill_6",NA,30.99,"5de28a28d521a00010b4cbcc"
"17362",1,0,6,"tullamore_dew",30.99,FALSE,"H7-fill_6",NA,NA,"5de28a28d521a00010b4cbcc"
"17363",1,0,7,"yellow_tail_red",10.99,FALSE,"H7-fill_6",NA,NA,"5de28a28d521a00010b4cbcc"
"17364",1,0,8,"smirnoff_usa",16.99,FALSE,"H7-fill_6",NA,NA,"5de28a28d521a00010b4cbcc"
"17365",2,0,0,"saint_brendans",17.99,FALSE,"H6-2",NA,NA,"5de28a28d521a00010b4cbcc"
"17366",2,0,1,"kerrygold",21.99,FALSE,"H6-2",NA,NA,"5de28a28d521a00010b4cbcc"
"17367",2,0,2,"carolans_small",17.99,FALSE,"H6-2",NA,NA,"5de28a28d521a00010b4cbcc"
"17368",2,0,3,"five_farms",34.99,FALSE,"H6-2",NA,NA,"5de28a28d521a00010b4cbcc"
"17369",2,0,4,"carolans_large",26.99,FALSE,"H6-2",NA,NA,"5de28a28d521a00010b4cbcc"
"17370",2,0,5,"grand_marnier",30.99,FALSE,"H6-2",NA,NA,"5de28a28d521a00010b4cbcc"
"17371",2,0,6,"baileys_750ml_usa",24.99,FALSE,"H6-2",NA,29.99,"5de28a28d521a00010b4cbcc"
"17372",2,0,7,"bushmills_large",42.99,FALSE,"H6-2",NA,NA,"5de28a28d521a00010b4cbcc"
"17373",2,0,8,"bushmills_small",26.99,FALSE,"H6-2",NA,NA,"5de28a28d521a00010b4cbcc"
"17374",2,0,9,"kahlua",23.99,TRUE,"H6-2",27188,NA,"5de28a28d521a00010b4cbcc"
"17375",3,0,0,"kahlua",23.99,FALSE,"H6-4",NA,NA,"5de28a28d521a00010b4cbcc"
"17376",3,0,1,"saint_brendans",17.99,FALSE,"H6-4",NA,NA,"5de28a28d521a00010b4cbcc"
"17377",3,0,2,"kerrygold",21.99,FALSE,"H6-4",NA,NA,"5de28a28d521a00010b4cbcc"
"17378",3,0,3,"bushmills_large",42.99,FALSE,"H6-4",NA,NA,"5de28a28d521a00010b4cbcc"
"17379",3,0,4,"baileys_750ml_usa",22.99,TRUE,"H6-4",8353,29.99,"5de28a28d521a00010b4cbcc"
"17380",3,0,5,"carolans_large",26.99,FALSE,"H6-4",NA,NA,"5de28a28d521a00010b4cbcc"
"17381",3,0,6,"carolans_small",17.99,FALSE,"H6-4",NA,NA,"5de28a28d521a00010b4cbcc"
"17382",3,0,7,"grand_marnier",30.99,FALSE,"H6-4",NA,NA,"5de28a28d521a00010b4cbcc"
"17383",3,0,8,"bushmills_small",26.99,FALSE,"H6-4",NA,NA,"5de28a28d521a00010b4cbcc"
"17384",3,0,9,"five_farms",34.99,FALSE,"H6-4",NA,NA,"5de28a28d521a00010b4cbcc"
"17385",4,0,0,"tullamore_dew",30.99,FALSE,"H5-fill_4",NA,NA,"5de28a28d521a00010b4cbcc"
"17386",4,0,1,"smirnoff_usa",16.99,FALSE,"H5-fill_4",NA,NA,"5de28a28d521a00010b4cbcc"
"17387",4,0,2,"yellow_tail_red",10.99,FALSE,"H5-fill_4",NA,NA,"5de28a28d521a00010b4cbcc"
"17388",4,0,3,"malibu_imported",17.99,FALSE,"H5-fill_4",NA,22.99,"5de28a28d521a00010b4cbcc"
"17389",4,0,4,"tanqueray_imported",25.99,FALSE,"H5-fill_4",NA,NA,"5de28a28d521a00010b4cbcc"
"17390",4,0,5,"malibu_imported_large",23.99,TRUE,"H5-fill_4",12070,NA,"5de28a28d521a00010b4cbcc"
"17391",4,0,6,"yellow_tail_white",10.99,FALSE,"H5-fill_4",NA,NA,"5de28a28d521a00010b4cbcc"
"17392",4,0,7,"rum_chata_us",24.99,FALSE,"H5-fill_4",NA,NA,"5de28a28d521a00010b4cbcc"
"17393",4,0,8,"smirnoff_usa_large",23.99,FALSE,"H5-fill_4",NA,NA,"5de28a28d521a00010b4cbcc"
"17394",5,0,0,"carolans_small",17.99,FALSE,"H6-1",NA,NA,"5de28a28d521a00010b4cbcc"
"17395",5,0,1,"carolans_large",26.99,FALSE,"H6-1",NA,NA,"5de28a28d521a00010b4cbcc"
"17396",5,0,2,"bushmills_small",26.99,FALSE,"H6-1",NA,NA,"5de28a28d521a00010b4cbcc"
"17397",5,0,3,"baileys_750ml_usa",25.99,TRUE,"H6-1",16895,29.99,"5de28a28d521a00010b4cbcc"
"17398",5,0,4,"grand_marnier",30.99,FALSE,"H6-1",NA,NA,"5de28a28d521a00010b4cbcc"
"17399",5,0,5,"kahlua",23.99,FALSE,"H6-1",NA,NA,"5de28a28d521a00010b4cbcc"
"17400",5,0,6,"five_farms",34.99,FALSE,"H6-1",NA,NA,"5de28a28d521a00010b4cbcc"
"17401",5,0,7,"saint_brendans",17.99,FALSE,"H6-1",NA,NA,"5de28a28d521a00010b4cbcc"
"17402",5,0,8,"bushmills_large",42.99,FALSE,"H6-1",NA,NA,"5de28a28d521a00010b4cbcc"
"17403",5,0,9,"kerrygold",21.99,FALSE,"H6-1",NA,NA,"5de28a28d521a00010b4cbcc"
"17404",6,0,0,"malibu_imported_large",23.99,TRUE,"H6-fill_3",9645,24.99,"5de28a28d521a00010b4cbcc"
"17405",6,0,1,"yellow_tail_red",10.99,FALSE,"H6-fill_3",NA,NA,"5de28a28d521a00010b4cbcc"
"17406",6,0,2,"smirnoff_usa_large",23.99,FALSE,"H6-fill_3",NA,NA,"5de28a28d521a00010b4cbcc"
"17407",6,0,3,"malibu_imported",17.99,FALSE,"H6-fill_3",NA,18.99,"5de28a28d521a00010b4cbcc"
"17408",6,0,4,"rum_chata_us",24.99,FALSE,"H6-fill_3",NA,NA,"5de28a28d521a00010b4cbcc"
"17409",6,0,5,"yellow_tail_white",10.99,FALSE,"H6-fill_3",NA,NA,"5de28a28d521a00010b4cbcc"
"17410",6,0,6,"smirnoff_usa",16.99,FALSE,"H6-fill_3",NA,21.99,"5de28a28d521a00010b4cbcc"
"17411",6,0,7,"tullamore_dew",30.99,FALSE,"H6-fill_3",NA,NA,"5de28a28d521a00010b4cbcc"
"17412",6,0,8,"tanqueray_imported",25.99,FALSE,"H6-fill_3",NA,29.99,"5de28a28d521a00010b4cbcc"
"17413",7,0,0,"malibu_imported_large",23.99,TRUE,"H6-fill_1",13793,31.99,"5de28a28d521a00010b4cbcc"
"17414",7,0,1,"malibu_imported",17.99,FALSE,"H6-fill_1",NA,NA,"5de28a28d521a00010b4cbcc"
"17415",7,0,2,"smirnoff_usa",16.99,FALSE,"H6-fill_1",NA,NA,"5de28a28d521a00010b4cbcc"
"17416",7,0,3,"rum_chata_us",24.99,FALSE,"H6-fill_1",NA,NA,"5de28a28d521a00010b4cbcc"
"17417",7,0,4,"tanqueray_imported",25.99,FALSE,"H6-fill_1",NA,26.99,"5de28a28d521a00010b4cbcc"
"17418",7,0,5,"yellow_tail_white",10.99,FALSE,"H6-fill_1",NA,18.99,"5de28a28d521a00010b4cbcc"
"17419",7,0,6,"smirnoff_usa_large",23.99,FALSE,"H6-fill_1",NA,NA,"5de28a28d521a00010b4cbcc"
"17420",7,0,7,"tullamore_dew",30.99,FALSE,"H6-fill_1",NA,NA,"5de28a28d521a00010b4cbcc"
"17421",7,0,8,"yellow_tail_red",10.99,FALSE,"H6-fill_1",NA,16.99,"5de28a28d521a00010b4cbcc"
"17422",8,0,0,"kerrygold",21.99,FALSE,"H5-5",NA,NA,"5de28a28d521a00010b4cbcc"
"17423",8,0,1,"bushmills_large",42.99,FALSE,"H5-5",NA,NA,"5de28a28d521a00010b4cbcc"
"17424",8,0,2,"bushmills_small",26.99,FALSE,"H5-5",NA,NA,"5de28a28d521a00010b4cbcc"
"17425",8,0,3,"grand_marnier",30.99,FALSE,"H5-5",NA,NA,"5de28a28d521a00010b4cbcc"
"17426",8,0,4,"carolans_large",26.99,FALSE,"H5-5",NA,NA,"5de28a28d521a00010b4cbcc"
"17427",8,0,5,"carolans_small",17.99,FALSE,"H5-5",NA,NA,"5de28a28d521a00010b4cbcc"
"17428",8,0,6,"kahlua",23.99,FALSE,"H5-5",NA,NA,"5de28a28d521a00010b4cbcc"
"17429",8,0,7,"baileys_750ml_usa",22.99,TRUE,"H5-5",7128,NA,"5de28a28d521a00010b4cbcc"
"17430",8,0,8,"five_farms",34.99,FALSE,"H5-5",NA,NA,"5de28a28d521a00010b4cbcc"
"17431",8,0,9,"saint_brendans",17.99,FALSE,"H5-5",NA,NA,"5de28a28d521a00010b4cbcc"
"17432",9,0,0,"kahlua",23.99,TRUE,"H5-1",5954,NA,"5de28a28d521a00010b4cbcc"
"17433",9,0,1,"carolans_small",17.99,FALSE,"H5-1",NA,NA,"5de28a28d521a00010b4cbcc"
"17434",9,0,2,"saint_brendans",17.99,FALSE,"H5-1",NA,NA,"5de28a28d521a00010b4cbcc"
"17435",9,0,3,"carolans_large",26.99,FALSE,"H5-1",NA,NA,"5de28a28d521a00010b4cbcc"
"17436",9,0,4,"kerrygold",21.99,FALSE,"H5-1",NA,NA,"5de28a28d521a00010b4cbcc"
"17437",9,0,5,"baileys_750ml_usa",30.99,FALSE,"H5-1",NA,NA,"5de28a28d521a00010b4cbcc"
"17438",9,0,6,"bushmills_large",42.99,FALSE,"H5-1",NA,NA,"5de28a28d521a00010b4cbcc"
"17439",9,0,7,"bushmills_small",26.99,FALSE,"H5-1",NA,NA,"5de28a28d521a00010b4cbcc"
"17440",9,0,8,"five_farms",34.99,FALSE,"H5-1",NA,NA,"5de28a28d521a00010b4cbcc"
"17441",9,0,9,"grand_marnier",30.99,FALSE,"H5-1",NA,NA,"5de28a28d521a00010b4cbcc"
"17442",0,0,0,"carolans_large",26.99,FALSE,"H7-3",NA,NA,"5de28a20625af00010e7d03b"
"17443",0,0,1,"baileys_1750ml_usa",45.99,TRUE,"H7-3",12716,56.99,"5de28a20625af00010e7d03b"
"17444",0,0,2,"bushmills_small",26.99,FALSE,"H7-3",NA,NA,"5de28a20625af00010e7d03b"
"17445",0,0,3,"baileys_750ml_usa",27.99,FALSE,"H7-3",NA,NA,"5de28a20625af00010e7d03b"
"17446",0,0,4,"carolans_small",17.99,FALSE,"H7-3",NA,NA,"5de28a20625af00010e7d03b"
"17447",0,0,5,"five_farms",34.99,FALSE,"H7-3",NA,NA,"5de28a20625af00010e7d03b"
"17448",0,0,6,"kahlua",23.99,FALSE,"H7-3",NA,NA,"5de28a20625af00010e7d03b"
"17449",0,0,7,"bushmills_large",42.99,FALSE,"H7-3",NA,NA,"5de28a20625af00010e7d03b"
"17450",0,0,8,"saint_brendans",17.99,FALSE,"H7-3",NA,NA,"5de28a20625af00010e7d03b"
"17451",0,0,9,"grand_marnier",30.99,FALSE,"H7-3",NA,NA,"5de28a20625af00010e7d03b"
"17452",0,0,10,"kerrygold",21.99,FALSE,"H7-3",NA,NA,"5de28a20625af00010e7d03b"
"17453",1,0,0,"carolans_small",17.99,FALSE,"H7-5",NA,NA,"5de28a20625af00010e7d03b"
"17454",1,0,1,"saint_brendans",17.99,FALSE,"H7-5",NA,NA,"5de28a20625af00010e7d03b"
"17455",1,0,2,"baileys_1750ml_usa",39.99,FALSE,"H7-5",NA,46.99,"5de28a20625af00010e7d03b"
"17456",1,0,3,"bushmills_small",26.99,FALSE,"H7-5",NA,NA,"5de28a20625af00010e7d03b"
"17457",1,0,4,"kahlua",23.99,FALSE,"H7-5",NA,NA,"5de28a20625af00010e7d03b"
"17458",1,0,5,"bushmills_large",42.99,FALSE,"H7-5",NA,NA,"5de28a20625af00010e7d03b"
"17459",1,0,6,"carolans_large",26.99,FALSE,"H7-5",NA,NA,"5de28a20625af00010e7d03b"
"17460",1,0,7,"baileys_750ml_usa",27.99,FALSE,"H7-5",NA,NA,"5de28a20625af00010e7d03b"
"17461",1,0,8,"five_farms",34.99,FALSE,"H7-5",NA,NA,"5de28a20625af00010e7d03b"
"17462",1,0,9,"grand_marnier",30.99,TRUE,"H7-5",12067,NA,"5de28a20625af00010e7d03b"
"17463",1,0,10,"kerrygold",21.99,FALSE,"H7-5",NA,NA,"5de28a20625af00010e7d03b"
"17464",2,0,0,"five_farms",34.99,FALSE,"H6-1",NA,NA,"5de28a20625af00010e7d03b"
"17465",2,0,1,"saint_brendans",17.99,FALSE,"H6-1",NA,NA,"5de28a20625af00010e7d03b"
"17466",2,0,2,"kerrygold",21.99,TRUE,"H6-1",15233,NA,"5de28a20625af00010e7d03b"
"17467",2,0,3,"bushmills_large",42.99,FALSE,"H6-1",NA,NA,"5de28a20625af00010e7d03b"
"17468",2,0,4,"bushmills_small",26.99,FALSE,"H6-1",NA,NA,"5de28a20625af00010e7d03b"
"17469",2,0,5,"baileys_750ml_usa",25.99,FALSE,"H6-1",NA,29.99,"5de28a20625af00010e7d03b"
"17470",2,0,6,"kahlua",23.99,FALSE,"H6-1",NA,NA,"5de28a20625af00010e7d03b"
"17471",2,0,7,"grand_marnier",30.99,FALSE,"H6-1",NA,NA,"5de28a20625af00010e7d03b"
"17472",2,0,8,"carolans_small",17.99,FALSE,"H6-1",NA,NA,"5de28a20625af00010e7d03b"
"17473",2,0,9,"carolans_large",26.99,FALSE,"H6-1",NA,NA,"5de28a20625af00010e7d03b"
"17474",3,0,0,"malibu_imported",17.99,FALSE,"H6-fill_6",NA,20.99,"5de28a20625af00010e7d03b"
"17475",3,0,1,"rum_chata_us",24.99,FALSE,"H6-fill_6",NA,NA,"5de28a20625af00010e7d03b"
"17476",3,0,2,"tullamore_dew",30.99,FALSE,"H6-fill_6",NA,32.99,"5de28a20625af00010e7d03b"
"17477",3,0,3,"tanqueray_imported",25.99,FALSE,"H6-fill_6",NA,NA,"5de28a20625af00010e7d03b"
"17478",3,0,4,"malibu_imported_large",23.99,FALSE,"H6-fill_6",NA,NA,"5de28a20625af00010e7d03b"
"17479",3,0,5,"yellow_tail_white",10.99,FALSE,"H6-fill_6",NA,NA,"5de28a20625af00010e7d03b"
"17480",3,0,6,"smirnoff_usa",16.99,FALSE,"H6-fill_6",NA,NA,"5de28a20625af00010e7d03b"
"17481",3,0,7,"yellow_tail_red",10.99,TRUE,"H6-fill_6",26400,NA,"5de28a20625af00010e7d03b"
"17482",3,0,8,"smirnoff_usa_large",23.99,FALSE,"H6-fill_6",NA,NA,"5de28a20625af00010e7d03b"
"17483",4,0,0,"bushmills_small",26.99,TRUE,"H5-4",39844,NA,"5de28a20625af00010e7d03b"
"17484",4,0,1,"baileys_750ml_usa",24.99,FALSE,"H5-4",NA,NA,"5de28a20625af00010e7d03b"
"17485",4,0,2,"five_farms",34.99,FALSE,"H5-4",NA,NA,"5de28a20625af00010e7d03b"
"17486",4,0,3,"bushmills_large",42.99,FALSE,"H5-4",NA,NA,"5de28a20625af00010e7d03b"
"17487",4,0,4,"carolans_small",17.99,FALSE,"H5-4",NA,NA,"5de28a20625af00010e7d03b"
"17488",4,0,5,"saint_brendans",17.99,FALSE,"H5-4",NA,NA,"5de28a20625af00010e7d03b"
"17489",4,0,6,"carolans_large",26.99,FALSE,"H5-4",NA,NA,"5de28a20625af00010e7d03b"
"17490",4,0,7,"kahlua",23.99,FALSE,"H5-4",NA,NA,"5de28a20625af00010e7d03b"
"17491",4,0,8,"grand_marnier",30.99,FALSE,"H5-4",NA,NA,"5de28a20625af00010e7d03b"
"17492",4,0,9,"kerrygold",21.99,FALSE,"H5-4",NA,NA,"5de28a20625af00010e7d03b"
"17493",5,0,0,"bushmills_large",42.99,FALSE,"H5-3",NA,NA,"5de28a20625af00010e7d03b"
"17494",5,0,1,"kahlua",23.99,FALSE,"H5-3",NA,NA,"5de28a20625af00010e7d03b"
"17495",5,0,2,"grand_marnier",30.99,FALSE,"H5-3",NA,NA,"5de28a20625af00010e7d03b"
"17496",5,0,3,"saint_brendans",17.99,TRUE,"H5-3",30078,NA,"5de28a20625af00010e7d03b"
"17497",5,0,4,"bushmills_small",26.99,FALSE,"H5-3",NA,NA,"5de28a20625af00010e7d03b"
"17498",5,0,5,"carolans_small",17.99,FALSE,"H5-3",NA,NA,"5de28a20625af00010e7d03b"
"17499",5,0,6,"carolans_large",26.99,FALSE,"H5-3",NA,NA,"5de28a20625af00010e7d03b"
"17500",5,0,7,"kerrygold",21.99,FALSE,"H5-3",NA,NA,"5de28a20625af00010e7d03b"
"17501",5,0,8,"baileys_750ml_usa",26.99,FALSE,"H5-3",NA,NA,"5de28a20625af00010e7d03b"
"17502",5,0,9,"five_farms",34.99,FALSE,"H5-3",NA,NA,"5de28a20625af00010e7d03b"
"17503",6,0,0,"malibu_imported_large",23.99,FALSE,"H5-fill_5",NA,NA,"5de28a20625af00010e7d03b"
"17504",6,0,1,"tullamore_dew",30.99,FALSE,"H5-fill_5",NA,36.99,"5de28a20625af00010e7d03b"
"17505",6,0,2,"rum_chata_us",24.99,FALSE,"H5-fill_5",NA,26.99,"5de28a20625af00010e7d03b"
"17506",6,0,3,"smirnoff_usa_large",23.99,FALSE,"H5-fill_5",NA,NA,"5de28a20625af00010e7d03b"
"17507",6,0,4,"yellow_tail_white",10.99,FALSE,"H5-fill_5",NA,NA,"5de28a20625af00010e7d03b"
"17508",6,0,5,"smirnoff_usa",16.99,TRUE,"H5-fill_5",19790,17.99,"5de28a20625af00010e7d03b"
"17509",6,0,6,"malibu_imported",17.99,FALSE,"H5-fill_5",NA,NA,"5de28a20625af00010e7d03b"
"17510",6,0,7,"yellow_tail_red",10.99,FALSE,"H5-fill_5",NA,17.99,"5de28a20625af00010e7d03b"
"17511",6,0,8,"tanqueray_imported",25.99,FALSE,"H5-fill_5",NA,NA,"5de28a20625af00010e7d03b"
"17512",7,0,0,"yellow_tail_red",10.99,FALSE,"H5-fill_1",NA,NA,"5de28a20625af00010e7d03b"
"17513",7,0,1,"tanqueray_imported",25.99,FALSE,"H5-fill_1",NA,NA,"5de28a20625af00010e7d03b"
"17514",7,0,2,"malibu_imported_large",23.99,FALSE,"H5-fill_1",NA,30.99,"5de28a20625af00010e7d03b"
"17515",7,0,3,"smirnoff_usa_large",23.99,FALSE,"H5-fill_1",NA,NA,"5de28a20625af00010e7d03b"
"17516",7,0,4,"yellow_tail_white",10.99,TRUE,"H5-fill_1",11274,17.99,"5de28a20625af00010e7d03b"
"17517",7,0,5,"malibu_imported",17.99,FALSE,"H5-fill_1",NA,NA,"5de28a20625af00010e7d03b"
"17518",7,0,6,"tullamore_dew",30.99,FALSE,"H5-fill_1",NA,NA,"5de28a20625af00010e7d03b"
"17519",7,0,7,"smirnoff_usa",16.99,FALSE,"H5-fill_1",NA,23.99,"5de28a20625af00010e7d03b"
"17520",7,0,8,"rum_chata_us",24.99,FALSE,"H5-fill_1",NA,NA,"5de28a20625af00010e7d03b"
"17521",8,0,0,"saint_brendans",17.99,TRUE,"H7-2",19757,NA,"5de28a20625af00010e7d03b"
"17522",8,0,1,"bushmills_large",42.99,FALSE,"H7-2",NA,NA,"5de28a20625af00010e7d03b"
"17523",8,0,2,"kerrygold",21.99,FALSE,"H7-2",NA,NA,"5de28a20625af00010e7d03b"
"17524",8,0,3,"baileys_750ml_usa",27.99,FALSE,"H7-2",NA,NA,"5de28a20625af00010e7d03b"
"17525",8,0,4,"bushmills_small",26.99,FALSE,"H7-2",NA,NA,"5de28a20625af00010e7d03b"
"17526",8,0,5,"baileys_1750ml_usa",48.99,FALSE,"H7-2",NA,56.99,"5de28a20625af00010e7d03b"
"17527",8,0,6,"kahlua",23.99,FALSE,"H7-2",NA,NA,"5de28a20625af00010e7d03b"
"17528",8,0,7,"carolans_small",17.99,FALSE,"H7-2",NA,NA,"5de28a20625af00010e7d03b"
"17529",8,0,8,"grand_marnier",30.99,FALSE,"H7-2",NA,NA,"5de28a20625af00010e7d03b"
"17530",8,0,9,"carolans_large",26.99,FALSE,"H7-2",NA,NA,"5de28a20625af00010e7d03b"
